ExperimentName	Subject	Session	SessionTime	Cooccurrences	testWait.RESP	testWait.RT	Picture	sound	TestList.Sample
5_1	11	1	14:55:43	2	1	3921	11	8	1
5_1	11	1	14:55:43	6	1	1442	14	14	2
5_1	11	1	14:55:43	2	1	1944	10	6	3
5_1	11	1	14:55:43	1	6	1056	7	1	4
5_1	11	1	14:55:43	4	1	5939	15	4	5
5_1	11	1	14:55:43	6	0	1460	15	15	6
5_1	11	1	14:55:43	0	1	615	7	17	7
5_1	11	1	14:55:43	0	1	435	11	15	8
5_1	11	1	14:55:43	2	2	8	18	14	9
5_1	11	1	14:55:43	1	1	855	9	10	10
5_1	11	1	14:55:43	0	1	322	3	12	11
5_1	11	1	14:55:43	4	0	784	4	12	12
5_1	11	1	14:55:43	1	3	2356	2	14	13
5_1	11	1	14:55:43	6	2	1198	3	3	14
5_1	11	1	14:55:43	1	4	2275	8	16	15
5_1	11	1	14:55:43	4	3	994	14	5	16
5_1	11	1	14:55:43	2	4	2178	13	2	17
5_1	11	1	14:55:43	6	2	24	8	8	18
5_1	11	1	14:55:43	0	3	562	1	3	19
5_1	11	1	14:55:43	3	3	560	7	5	20
5_1	11	1	14:55:43	0	4	2136	12	2	21
5_1	11	1	14:55:43	0	1	705	18	8	22
5_1	11	1	14:55:43	4	2	194	11	7	23
5_1	11	1	14:55:43	3	2	771	6	9	24
5_1	11	1	14:55:43	6	2	2542	16	16	25
5_1	11	1	14:55:43	0	2	918	16	3	26
5_1	11	1	14:55:43	1	3	1062	1	18	27
5_1	11	1	14:55:43	3	2	528	2	18	28
5_1	11	1	14:55:43	6	1	388	11	11	29
5_1	11	1	14:55:43	1	3	2119	3	14	30
5_1	11	1	14:55:43	6	2	388	6	6	31
5_1	11	1	14:55:43	0	2	870	17	13	32
5_1	11	1	14:55:43	2	2	600	5	18	33
5_1	11	1	14:55:43	2	1	1095	15	17	34
5_1	11	1	14:55:43	3	3	371	14	16	35
5_1	11	1	14:55:43	6	0	319	9	9	36
5_1	11	1	14:55:43	0	2	233	5	2	37
5_1	11	1	14:55:43	2	1	278	17	9	38
5_1	11	1	14:55:43	1	2	3175	8	6	39
5_1	11	1	14:55:43	6	1	397	5	5	40
5_1	11	1	14:55:43	6	0	245	2	2	41
5_1	11	1	14:55:43	2	1	59	6	3	42
5_1	11	1	14:55:43	2	2	744	12	11	43
5_1	11	1	14:55:43	6	2	1746	12	12	44
5_1	11	1	14:55:43	6	0	2128	1	1	45
5_1	11	1	14:55:43	1	1	2244	2	16	46
5_1	11	1	14:55:43	2	1	1693	16	13	47
5_1	11	1	14:55:43	1	0	333	4	1	48
5_1	11	1	14:55:43	1	1	1673	4	11	49
5_1	11	1	14:55:43	1	1	608	9	15	50
5_1	11	1	14:55:43	2	1	229	18	4	51
5_1	11	1	14:55:43	3	2	120	1	13	52
5_1	11	1	14:55:43	6	1	255	18	18	53
5_1	11	1	14:55:43	1	1	282	10	9	54
5_1	11	1	14:55:43	6	1	1696	17	17	55
5_1	11	1	14:55:43	1	2	2386	5	17	56
5_1	11	1	14:55:43	2	3	1349	3	10	57
5_1	11	1	14:55:43	6	0	325	4	4	58
5_1	11	1	14:55:43	0	0	373	14	4	59
5_1	11	1	14:55:43	0	4	1856	9	8	60
5_1	11	1	14:55:43	3	2	1314	17	6	61
5_1	11	1	14:55:43	6	0	1985	13	13	62
5_1	11	1	14:55:43	1	1	1215	6	12	63
5_1	11	1	14:55:43	6	2	881	10	10	64
5_1	11	1	14:55:43	6	2	425	7	7	65
5_1	11	1	14:55:43	0	0	435	13	7	66
5_1	11	1	14:55:43	3	2	371	8	10	67
5_1	11	1	14:55:43	0	2	176	13	7	68
5_1	11	1	14:55:43	3	1	627	12	15	69
5_1	11	1	14:55:43	0	2	871	15	5	70
5_1	11	1	14:55:43	4	3	216	16	1	71
5_1	11	1	14:55:43	4	2	517	10	11	72
5_1	15	1	15:47:11	3	1	13229	17	6	1
5_1	15	1	15:47:11	2	0	5557	18	14	2
5_1	15	1	15:47:11	4	2	14997	10	11	3
5_1	15	1	15:47:11	6	2	2504	11	11	4
5_1	15	1	15:47:11	6	3	3176	4	4	5
5_1	15	1	15:47:11	3	0	2301	7	5	6
5_1	15	1	15:47:11	6	6	5958	10	10	7
5_1	15	1	15:47:11	0	4	9284	18	8	8
5_1	15	1	15:47:11	6	1	4297	12	12	9
5_1	15	1	15:47:11	6	0	631	18	18	10
5_1	15	1	15:47:11	2	1	6952	5	18	11
5_1	15	1	15:47:11	3	1	4919	2	18	12
5_1	15	1	15:47:11	4	0	581	11	7	13
5_1	15	1	15:47:11	2	6	3409	3	10	14
5_1	15	1	15:47:11	0	2	8335	1	3	15
5_1	15	1	15:47:11	0	1	663	13	7	16
5_1	15	1	15:47:11	6	2	1344	13	13	17
5_1	15	1	15:47:11	1	0	7810	3	14	18
5_1	15	1	15:47:11	4	3	1648	16	1	19
5_1	15	1	15:47:11	2	0	1723	17	9	20
5_1	15	1	15:47:11	4	3	3758	15	4	21
5_1	15	1	15:47:11	1	2	1456	7	1	22
5_1	15	1	15:47:11	0	1	1504	12	2	23
5_1	15	1	15:47:11	6	2	1984	3	3	24
5_1	15	1	15:47:11	0	0	1408	13	7	25
5_1	15	1	15:47:11	6	4	2068	1	1	26
5_1	15	1	15:47:11	2	2	3128	6	3	27
5_1	15	1	15:47:11	1	5	7520	9	10	28
5_1	15	1	15:47:11	0	2	1529	15	5	29
5_1	15	1	15:47:11	0	1	983	5	2	30
5_1	15	1	15:47:11	3	3	4927	14	16	31
5_1	15	1	15:47:11	2	4	1924	12	11	32
5_1	15	1	15:47:11	6	1	2960	5	5	33
5_1	15	1	15:47:11	2	1	2057	13	2	34
5_1	15	1	15:47:11	0	0	705	11	15	35
5_1	15	1	15:47:11	0	2	1267	14	4	36
5_1	15	1	15:47:11	1	1	2901	6	12	37
5_1	15	1	15:47:11	0	0	4019	17	13	38
5_1	15	1	15:47:11	1	0	3408	1	18	39
5_1	15	1	15:47:11	2	3	2543	18	4	40
5_1	15	1	15:47:11	1	3	2966	5	17	41
5_1	15	1	15:47:11	6	2	1854	7	7	42
5_1	15	1	15:47:11	2	3	2415	15	17	43
5_1	15	1	15:47:11	1	2	5441	8	6	44
5_1	15	1	15:47:11	3	1	3399	1	13	45
5_1	15	1	15:47:11	1	4	1857	2	16	46
5_1	15	1	15:47:11	3	2	1138	6	9	47
5_1	15	1	15:47:11	2	4	2645	11	8	48
5_1	15	1	15:47:11	6	3	3983	8	8	49
5_1	15	1	15:47:11	1	2	7844	4	1	50
5_1	15	1	15:47:11	4	0	5108	14	5	51
5_1	15	1	15:47:11	0	2	12374	9	8	52
5_1	15	1	15:47:11	4	3	11559	4	12	53
5_1	15	1	15:47:11	3	6	9747	8	10	54
5_1	15	1	15:47:11	6	5	1492	16	16	55
5_1	15	1	15:47:11	1	5	1641	10	9	56
5_1	15	1	15:47:11	1	4	1782	9	15	57
5_1	15	1	15:47:11	6	2	760	6	6	58
5_1	15	1	15:47:11	6	2	5176	14	14	59
5_1	15	1	15:47:11	1	3	3042	4	11	60
5_1	15	1	15:47:11	0	2	6219	3	12	61
5_1	15	1	15:47:11	6	3	691	15	15	62
5_1	15	1	15:47:11	2	5	4671	10	6	63
5_1	15	1	15:47:11	6	4	3025	17	17	64
5_1	15	1	15:47:11	2	3	4168	16	13	65
5_1	15	1	15:47:11	1	3	664	2	14	66
5_1	15	1	15:47:11	6	4	10705	9	9	67
5_1	15	1	15:47:11	6	1	497	2	2	68
5_1	15	1	15:47:11	0	3	724	16	3	69
5_1	15	1	15:47:11	3	3	3497	12	15	70
5_1	15	1	15:47:11	0	4	1096	7	17	71
5_1	15	1	15:47:11	1	4	7140	8	16	72
5_1	20	1	16:44:33	6	1	9012	11	11	1
5_1	20	1	16:44:33	6	1	944	13	13	2
5_1	20	1	16:44:33	2	0	2129	11	8	3
5_1	20	1	16:44:33	6	1	1283	2	2	4
5_1	20	1	16:44:33	6	0	1479	5	5	5
5_1	20	1	16:44:33	1	0	248	8	6	6
5_1	20	1	16:44:33	1	0	1047	5	17	7
5_1	20	1	16:44:33	2	2	903	6	3	8
5_1	20	1	16:44:33	0	0	752	15	5	9
5_1	20	1	16:44:33	1	0	701	7	1	10
5_1	20	1	16:44:33	0	0	49	12	2	11
5_1	20	1	16:44:33	2	0	1093	13	2	12
5_1	20	1	16:44:33	2	0	402	18	4	13
5_1	20	1	16:44:33	0	0	401	13	7	14
5_1	20	1	16:44:33	4	0	132	4	12	15
5_1	20	1	16:44:33	3	0	441	1	13	16
5_1	20	1	16:44:33	0	0	974	14	4	17
5_1	20	1	16:44:33	6	1	4850	9	9	18
5_1	20	1	16:44:33	6	2	2030	8	8	19
5_1	20	1	16:44:33	6	1	1492	4	4	20
5_1	20	1	16:44:33	6	3	1706	10	10	21
5_1	20	1	16:44:33	0	0	118	7	17	22
5_1	20	1	16:44:33	6	1	2093	16	16	23
5_1	20	1	16:44:33	6	2	2247	1	1	24
5_1	20	1	16:44:33	2	0	1464	3	10	25
5_1	20	1	16:44:33	1	0	710	4	11	26
5_1	20	1	16:44:33	2	0	392	10	6	27
5_1	20	1	16:44:33	4	0	134	10	11	28
5_1	20	1	16:44:33	3	0	84	8	10	29
5_1	20	1	16:44:33	0	0	119	3	12	30
5_1	20	1	16:44:33	3	0	384	7	5	31
5_1	20	1	16:44:33	0	1	290	9	8	32
5_1	20	1	16:44:33	1	0	227	4	1	33
5_1	20	1	16:44:33	1	0	740	10	9	34
5_1	20	1	16:44:33	2	0	4	18	14	35
5_1	20	1	16:44:33	0	0	907	17	13	36
5_1	20	1	16:44:33	4	0	26	11	7	37
5_1	20	1	16:44:33	1	0	53	6	12	38
5_1	20	1	16:44:33	1	0	177	9	10	39
5_1	20	1	16:44:33	3	0	311	6	9	40
5_1	20	1	16:44:33	6	2	271	12	12	41
5_1	20	1	16:44:33	4	0	1504	15	4	42
5_1	20	1	16:44:33	6	0	831	6	6	43
5_1	20	1	16:44:33	0	0	298	5	2	44
5_1	20	1	16:44:33	1	0	1	8	16	45
5_1	20	1	16:44:33	6	3	629	17	17	46
5_1	20	1	16:44:33	3	0	197	12	15	47
5_1	20	1	16:44:33	0	0	3	13	7	48
5_1	20	1	16:44:33	6	2	470	18	18	49
5_1	20	1	16:44:33	1	0	106	2	16	50
5_1	20	1	16:44:33	0	0	356	11	15	51
5_1	20	1	16:44:33	3	0	388	14	16	52
5_1	20	1	16:44:33	1	0	136	9	15	53
5_1	20	1	16:44:33	4	0	1204	14	5	54
5_1	20	1	16:44:33	1	0	1328	3	14	55
5_1	20	1	16:44:33	0	0	357	16	3	56
5_1	20	1	16:44:33	2	2	662	16	13	57
5_1	20	1	16:44:33	2	0	1599	15	17	58
5_1	20	1	16:44:33	6	0	52	3	3	59
5_1	20	1	16:44:33	0	0	258	1	3	60
5_1	20	1	16:44:33	2	0	22	12	11	61
5_1	20	1	16:44:33	2	0	130	5	18	62
5_1	20	1	16:44:33	3	0	366	2	18	63
5_1	20	1	16:44:33	1	0	165	2	14	64
5_1	20	1	16:44:33	6	2	1316	14	14	65
5_1	20	1	16:44:33	0	0	403	18	8	66
5_1	20	1	16:44:33	2	0	193	17	9	67
5_1	20	1	16:44:33	4	0	225	16	1	68
5_1	20	1	16:44:33	1	0	821	1	18	69
5_1	20	1	16:44:33	3	0	1641	17	6	70
5_1	20	1	16:44:33	6	2	341	15	15	71
5_1	20	1	16:44:33	6	6	1361	7	7	72
5_1	27	1	14:40:04	1	1	14652	8	6	1
5_1	27	1	14:40:04	2	1	975	12	11	2
5_1	27	1	14:40:04	1	1	979	4	11	3
5_1	27	1	14:40:04	3	1	726	12	15	4
5_1	27	1	14:40:04	6	1	1321	8	8	5
5_1	27	1	14:40:04	6	1	3366	18	18	6
5_1	27	1	14:40:04	2	1	121	13	2	7
5_1	27	1	14:40:04	1	1	368	10	9	8
5_1	27	1	14:40:04	3	2	645	17	6	9
5_1	27	1	14:40:04	6	1	2934	15	15	10
5_1	27	1	14:40:04	2	0	1254	15	17	11
5_1	27	1	14:40:04	3	0	2592	2	18	12
5_1	27	1	14:40:04	0	0	694	13	7	13
5_1	27	1	14:40:04	0	2	770	18	8	14
5_1	27	1	14:40:04	1	0	215	9	15	15
5_1	27	1	14:40:04	6	3	707	4	4	16
5_1	27	1	14:40:04	1	2	1111	2	16	17
5_1	27	1	14:40:04	6	2	886	2	2	18
5_1	27	1	14:40:04	2	1	229	17	9	19
5_1	27	1	14:40:04	6	3	566	5	5	20
5_1	27	1	14:40:04	1	2	148	5	17	21
5_1	27	1	14:40:04	4	0	263	16	1	22
5_1	27	1	14:40:04	0	0	1601	1	3	23
5_1	27	1	14:40:04	4	2	521	14	5	24
5_1	27	1	14:40:04	2	4	303	16	13	25
5_1	27	1	14:40:04	6	0	64	12	12	26
5_1	27	1	14:40:04	4	1	1513	11	7	27
5_1	27	1	14:40:04	4	1	214	4	12	28
5_1	27	1	14:40:04	0	0	482	13	7	29
5_1	27	1	14:40:04	1	0	753	2	14	30
5_1	27	1	14:40:04	3	0	192	7	5	31
5_1	27	1	14:40:04	6	2	336	14	14	32
5_1	27	1	14:40:04	3	3	439	8	10	33
5_1	27	1	14:40:04	6	4	2150	13	13	34
5_1	27	1	14:40:04	0	3	1397	12	2	35
5_1	27	1	14:40:04	3	2	211	6	9	36
5_1	27	1	14:40:04	6	0	64	3	3	37
5_1	27	1	14:40:04	2	3	962	18	14	38
5_1	27	1	14:40:04	4	2	513	10	11	39
5_1	27	1	14:40:04	0	0	1473	5	2	40
5_1	27	1	14:40:04	6	2	510	17	17	41
5_1	27	1	14:40:04	2	2	1145	18	4	42
5_1	27	1	14:40:04	6	1	49	6	6	43
5_1	27	1	14:40:04	1	2	792	1	18	44
5_1	27	1	14:40:04	2	4	192	11	8	45
5_1	27	1	14:40:04	1	1	1599	8	16	46
5_1	27	1	14:40:04	6	5	572	7	7	47
5_1	27	1	14:40:04	1	3	432	9	10	48
5_1	27	1	14:40:04	0	1	2125	9	8	49
5_1	27	1	14:40:04	6	2	195	11	11	50
5_1	27	1	14:40:04	2	2	948	3	10	51
5_1	27	1	14:40:04	1	0	661	4	1	52
5_1	27	1	14:40:04	0	2	1097	7	17	53
5_1	27	1	14:40:04	1	0	1299	6	12	54
5_1	27	1	14:40:04	2	0	486	6	3	55
5_1	27	1	14:40:04	0	0	372	11	15	56
5_1	27	1	14:40:04	6	2	1328	16	16	57
5_1	27	1	14:40:04	1	3	757	3	14	58
5_1	27	1	14:40:04	0	0	212	15	5	59
5_1	27	1	14:40:04	0	0	272	3	12	60
5_1	27	1	14:40:04	4	2	849	15	4	61
5_1	27	1	14:40:04	6	2	198	9	9	62
5_1	27	1	14:40:04	2	0	152	5	18	63
5_1	27	1	14:40:04	0	1	226	14	4	64
5_1	27	1	14:40:04	0	2	372	17	13	65
5_1	27	1	14:40:04	6	5	831	10	10	66
5_1	27	1	14:40:04	3	3	544	1	13	67
5_1	27	1	14:40:04	1	0	145	7	1	68
5_1	27	1	14:40:04	3	0	196	14	16	69
5_1	27	1	14:40:04	6	5	580	1	1	70
5_1	27	1	14:40:04	2	2	1080	10	6	71
5_1	27	1	14:40:04	0	3	152	16	3	72
5_1	32	1	15:28:22	0	1	43323	7	17	1
5_1	32	1	15:28:22	4	0	6198	4	12	2
5_1	32	1	15:28:22	2	0	6827	17	9	3
5_1	32	1	15:28:22	2	3	7967	18	4	4
5_1	32	1	15:28:22	2	0	1825	10	6	5
5_1	32	1	15:28:22	1	3	3141	2	14	6
5_1	32	1	15:28:22	6	2	500	13	13	7
5_1	32	1	15:28:22	0	5	1415	14	4	8
5_1	32	1	15:28:22	2	5	786	18	14	9
5_1	32	1	15:28:22	1	2	1748	3	14	10
5_1	32	1	15:28:22	2	1	1409	5	18	11
5_1	32	1	15:28:22	6	5	1767	1	1	12
5_1	32	1	15:28:22	2	3	1433	15	17	13
5_1	32	1	15:28:22	2	4	1357	11	8	14
5_1	32	1	15:28:22	6	2	1412	4	4	15
5_1	32	1	15:28:22	6	2	841	10	10	16
5_1	32	1	15:28:22	1	2	1069	6	12	17
5_1	32	1	15:28:22	0	2	1607	13	7	18
5_1	32	1	15:28:22	6	2	467	18	18	19
5_1	32	1	15:28:22	2	2	2390	3	10	20
5_1	32	1	15:28:22	0	2	3380	1	3	21
5_1	32	1	15:28:22	1	3	3745	9	15	22
5_1	32	1	15:28:22	3	1	3382	6	9	23
5_1	32	1	15:28:22	4	2	467	16	1	24
5_1	32	1	15:28:22	2	3	293	13	2	25
5_1	32	1	15:28:22	1	2	147	8	16	26
5_1	32	1	15:28:22	0	3	1573	3	12	27
5_1	32	1	15:28:22	6	1	554	7	7	28
5_1	32	1	15:28:22	1	0	912	7	1	29
5_1	32	1	15:28:22	3	1	1040	17	6	30
5_1	32	1	15:28:22	0	1	504	18	8	31
5_1	32	1	15:28:22	1	3	34	1	18	32
5_1	32	1	15:28:22	1	2	275	4	11	33
5_1	32	1	15:28:22	6	2	84	16	16	34
5_1	32	1	15:28:22	0	2	546	12	2	35
5_1	32	1	15:28:22	3	3	325	14	16	36
5_1	32	1	15:28:22	0	3	5538	15	5	37
5_1	32	1	15:28:22	6	5	118	14	14	38
5_1	32	1	15:28:22	4	2	311	11	7	39
5_1	32	1	15:28:22	6	1	143	5	5	40
5_1	32	1	15:28:22	1	3	67	9	10	41
5_1	32	1	15:28:22	0	1	70	5	2	42
5_1	32	1	15:28:22	3	2	254	2	18	43
5_1	32	1	15:28:22	6	2	372	15	15	44
5_1	32	1	15:28:22	1	1	97	8	6	45
5_1	32	1	15:28:22	6	3	646	11	11	46
5_1	32	1	15:28:22	4	2	307	15	4	47
5_1	32	1	15:28:22	3	1	21	1	13	48
5_1	32	1	15:28:22	6	0	241	17	17	49
5_1	32	1	15:28:22	0	1	5	16	3	50
5_1	32	1	15:28:22	0	3	2991	9	8	51
5_1	32	1	15:28:22	3	2	185	8	10	52
5_1	32	1	15:28:22	1	1	69	4	1	53
5_1	32	1	15:28:22	0	2	3	13	7	54
5_1	32	1	15:28:22	2	1	1431	12	11	55
5_1	32	1	15:28:22	1	2	1078	2	16	56
5_1	32	1	15:28:22	6	2	1573	2	2	57
5_1	32	1	15:28:22	6	2	54	8	8	58
5_1	32	1	15:28:22	3	3	579	7	5	59
5_1	32	1	15:28:22	6	1	102	9	9	60
5_1	32	1	15:28:22	4	4	673	14	5	61
5_1	32	1	15:28:22	6	2	337	12	12	62
5_1	32	1	15:28:22	1	2	1973	5	17	63
5_1	32	1	15:28:22	4	2	40	10	11	64
5_1	32	1	15:28:22	3	2	79	12	15	65
5_1	32	1	15:28:22	6	2	169	3	3	66
5_1	32	1	15:28:22	0	2	2744	11	15	67
5_1	32	1	15:28:22	0	2	488	17	13	68
5_1	32	1	15:28:22	2	3	438	16	13	69
5_1	32	1	15:28:22	2	3	1014	6	3	70
5_1	32	1	15:28:22	6	3	47	6	6	71
5_1	32	1	15:28:22	1	2	38	10	9	72
5_1	35	1	16:16:54	1	5	5524	7	1	1
5_1	35	1	16:16:54	6	3	821	14	14	2
5_1	35	1	16:16:54	1	2	3657	2	14	3
5_1	35	1	16:16:54	4	5	4079	10	11	4
5_1	35	1	16:16:54	6	3	1215	12	12	5
5_1	35	1	16:16:54	6	0	3777	5	5	6
5_1	35	1	16:16:54	0	1	537	13	7	7
5_1	35	1	16:16:54	1	3	627	3	14	8
5_1	35	1	16:16:54	0	0	3430	15	5	9
5_1	35	1	16:16:54	6	6	536	2	2	10
5_1	35	1	16:16:54	0	4	2314	16	3	11
5_1	35	1	16:16:54	0	3	664	5	2	12
5_1	35	1	16:16:54	1	4	968	4	11	13
5_1	35	1	16:16:54	1	0	246	8	16	14
5_1	35	1	16:16:54	2	0	483	5	18	15
5_1	35	1	16:16:54	1	0	1192	5	17	16
5_1	35	1	16:16:54	3	0	793	6	9	17
5_1	35	1	16:16:54	0	0	1760	18	8	18
5_1	35	1	16:16:54	0	2	548	14	4	19
5_1	35	1	16:16:54	1	6	838	10	9	20
5_1	35	1	16:16:54	3	6	1916	7	5	21
5_1	35	1	16:16:54	4	0	1753	4	12	22
5_1	35	1	16:16:54	6	3	1014	16	16	23
5_1	35	1	16:16:54	3	0	1519	17	6	24
5_1	35	1	16:16:54	3	0	120	1	13	25
5_1	35	1	16:16:54	2	0	2415	13	2	26
5_1	35	1	16:16:54	6	0	14	11	11	27
5_1	35	1	16:16:54	0	0	579	9	8	28
5_1	35	1	16:16:54	3	0	409	8	10	29
5_1	35	1	16:16:54	1	0	598	6	12	30
5_1	35	1	16:16:54	4	0	358	15	4	31
5_1	35	1	16:16:54	2	0	311	6	3	32
5_1	35	1	16:16:54	2	0	96	18	14	33
5_1	35	1	16:16:54	6	0	198	18	18	34
5_1	35	1	16:16:54	0	0	662	13	7	35
5_1	35	1	16:16:54	1	0	526	2	16	36
5_1	35	1	16:16:54	2	0	229	18	4	37
5_1	35	1	16:16:54	6	6	120	6	6	38
5_1	35	1	16:16:54	0	0	271	7	17	39
5_1	35	1	16:16:54	2	0	63	3	10	40
5_1	35	1	16:16:54	0	0	164	11	15	41
5_1	35	1	16:16:54	0	0	1736	3	12	42
5_1	35	1	16:16:54	2	0	288	10	6	43
5_1	35	1	16:16:54	2	0	504	17	9	44
5_1	35	1	16:16:54	2	0	1137	11	8	45
5_1	35	1	16:16:54	6	6	37	17	17	46
5_1	35	1	16:16:54	6	6	982	10	10	47
5_1	35	1	16:16:54	1	0	944	1	18	48
5_1	35	1	16:16:54	3	0	480	12	15	49
5_1	35	1	16:16:54	6	6	312	15	15	50
5_1	35	1	16:16:54	2	0	448	15	17	51
5_1	35	1	16:16:54	4	3	1127	14	5	52
5_1	35	1	16:16:54	1	0	293	4	1	53
5_1	35	1	16:16:54	3	0	336	2	18	54
5_1	35	1	16:16:54	6	0	229	3	3	55
5_1	35	1	16:16:54	1	0	94	9	15	56
5_1	35	1	16:16:54	6	0	51	1	1	57
5_1	35	1	16:16:54	0	6	2272	12	2	58
5_1	35	1	16:16:54	0	6	503	1	3	59
5_1	35	1	16:16:54	6	6	400	8	8	60
5_1	35	1	16:16:54	1	0	158	8	6	61
5_1	35	1	16:16:54	0	0	6	17	13	62
5_1	35	1	16:16:54	6	0	349	9	9	63
5_1	35	1	16:16:54	6	6	87	13	13	64
5_1	35	1	16:16:54	2	0	23	16	13	65
5_1	35	1	16:16:54	4	0	99	16	1	66
5_1	35	1	16:16:54	4	0	6	11	7	67
5_1	35	1	16:16:54	1	0	4	9	10	68
5_1	35	1	16:16:54	3	0	75	14	16	69
5_1	35	1	16:16:54	2	6	309	12	11	70
5_1	35	1	16:16:54	6	6	120	4	4	71
5_1	35	1	16:16:54	6	0	189	7	7	72
5_1	39	1	09:54:09	2	2	6747	18	14	1
5_1	39	1	09:54:09	6	3	2977	15	15	2
5_1	39	1	09:54:09	6	4	1767	2	2	3
5_1	39	1	09:54:09	3	3	1216	6	9	4
5_1	39	1	09:54:09	6	4	1620	16	16	5
5_1	39	1	09:54:09	6	5	1318	17	17	6
5_1	39	1	09:54:09	4	0	6826	15	4	7
5_1	39	1	09:54:09	0	0	2982	11	15	8
5_1	39	1	09:54:09	1	0	709	10	9	9
5_1	39	1	09:54:09	0	0	1062	14	4	10
5_1	39	1	09:54:09	1	5	2847	3	14	11
5_1	39	1	09:54:09	0	1	2417	16	3	12
5_1	39	1	09:54:09	2	0	503	17	9	13
5_1	39	1	09:54:09	4	0	177	10	11	14
5_1	39	1	09:54:09	6	4	1483	9	9	15
5_1	39	1	09:54:09	6	6	336	10	10	16
5_1	39	1	09:54:09	6	6	417	1	1	17
5_1	39	1	09:54:09	6	6	360	13	13	18
5_1	39	1	09:54:09	1	0	2439	8	16	19
5_1	39	1	09:54:09	0	0	1763	1	3	20
5_1	39	1	09:54:09	6	0	3728	3	3	21
5_1	39	1	09:54:09	4	0	366	16	1	22
5_1	39	1	09:54:09	2	0	1302	11	8	23
5_1	39	1	09:54:09	6	6	3446	5	5	24
5_1	39	1	09:54:09	2	0	506	15	17	25
5_1	39	1	09:54:09	2	0	2867	18	4	26
5_1	39	1	09:54:09	1	2	3601	4	11	27
5_1	39	1	09:54:09	0	0	3378	7	17	28
5_1	39	1	09:54:09	1	0	2367	9	10	29
5_1	39	1	09:54:09	0	0	2466	18	8	30
5_1	39	1	09:54:09	2	5	4592	16	13	31
5_1	39	1	09:54:09	3	0	528	8	10	32
5_1	39	1	09:54:09	3	0	775	1	13	33
5_1	39	1	09:54:09	1	0	130	2	16	34
5_1	39	1	09:54:09	2	2	2937	3	10	35
5_1	39	1	09:54:09	3	1	1360	12	15	36
5_1	39	1	09:54:09	1	0	2214	9	15	37
5_1	39	1	09:54:09	0	0	1711	13	7	38
5_1	39	1	09:54:09	2	5	1477	6	3	39
5_1	39	1	09:54:09	1	0	2531	7	1	40
5_1	39	1	09:54:09	0	0	741	5	2	41
5_1	39	1	09:54:09	2	2	878	12	11	42
5_1	39	1	09:54:09	6	6	919	7	7	43
5_1	39	1	09:54:09	1	2	1284	1	18	44
5_1	39	1	09:54:09	6	2	339	18	18	45
5_1	39	1	09:54:09	1	1	1159	5	17	46
5_1	39	1	09:54:09	6	1	3339	4	4	47
5_1	39	1	09:54:09	2	1	432	10	6	48
5_1	39	1	09:54:09	2	2	497	13	2	49
5_1	39	1	09:54:09	6	2	118	6	6	50
5_1	39	1	09:54:09	3	1	807	2	18	51
5_1	39	1	09:54:09	1	2	1861	4	1	52
5_1	39	1	09:54:09	3	1	166	17	6	53
5_1	39	1	09:54:09	6	6	469	8	8	54
5_1	39	1	09:54:09	6	4	2269	14	14	55
5_1	39	1	09:54:09	3	2	689	14	16	56
5_1	39	1	09:54:09	0	1	350	12	2	57
5_1	39	1	09:54:09	0	1	312	3	12	58
5_1	39	1	09:54:09	2	6	1383	5	18	59
5_1	39	1	09:54:09	0	5	1567	15	5	60
5_1	39	1	09:54:09	1	4	809	6	12	61
5_1	39	1	09:54:09	6	4	486	12	12	62
5_1	39	1	09:54:09	0	2	501	17	13	63
5_1	39	1	09:54:09	4	3	416	4	12	64
5_1	39	1	09:54:09	4	3	227	11	7	65
5_1	39	1	09:54:09	0	1	311	13	7	66
5_1	39	1	09:54:09	0	2	317	9	8	67
5_1	39	1	09:54:09	4	2	1565	14	5	68
5_1	39	1	09:54:09	6	2	737	11	11	69
5_1	39	1	09:54:09	1	2	229	8	6	70
5_1	39	1	09:54:09	3	2	1238	7	5	71
5_1	39	1	09:54:09	1	3	263	2	14	72
5_1	5	1	12:35:08	1	0	10830	8	6	1
5_1	5	1	12:35:08	2	0	3326	15	17	2
5_1	5	1	12:35:08	0	0	769	13	7	3
5_1	5	1	12:35:08	2	0	2434	11	8	4
5_1	5	1	12:35:08	2	1	3186	13	2	5
5_1	5	1	12:35:08	6	2	2680	1	1	6
5_1	5	1	12:35:08	4	0	986	15	4	7
5_1	5	1	12:35:08	1	0	2769	5	17	8
5_1	5	1	12:35:08	6	0	396	2	2	9
5_1	5	1	12:35:08	6	4	2053	8	8	10
5_1	5	1	12:35:08	6	0	386	4	4	11
5_1	5	1	12:35:08	1	0	78	3	14	12
5_1	5	1	12:35:08	3	3	2607	7	5	13
5_1	5	1	12:35:08	2	0	1282	16	13	14
5_1	5	1	12:35:08	6	1	499	13	13	15
5_1	5	1	12:35:08	1	0	49	1	18	16
5_1	5	1	12:35:08	6	0	19	10	10	17
5_1	5	1	12:35:08	2	0	6	12	11	18
5_1	5	1	12:35:08	0	0	1243	1	3	19
5_1	5	1	12:35:08	0	1	2330	12	2	20
5_1	5	1	12:35:08	3	2	4829	1	13	21
5_1	5	1	12:35:08	6	2	82	5	5	22
5_1	5	1	12:35:08	3	1	2	17	6	23
5_1	5	1	12:35:08	1	2	851	4	11	24
5_1	5	1	12:35:08	4	3	178	10	11	25
5_1	5	1	12:35:08	0	2	211	7	17	26
5_1	5	1	12:35:08	0	3	1674	15	5	27
5_1	5	1	12:35:08	6	1	729	3	3	28
5_1	5	1	12:35:08	6	3	1952	7	7	29
5_1	5	1	12:35:08	1	3	434	2	14	30
5_1	5	1	12:35:08	1	4	1420	8	16	31
5_1	5	1	12:35:08	3	5	352	8	10	32
5_1	5	1	12:35:08	0	2	313	17	13	33
5_1	5	1	12:35:08	2	4	413	5	18	34
5_1	5	1	12:35:08	3	1	892	14	16	35
5_1	5	1	12:35:08	2	0	520	18	4	36
5_1	5	1	12:35:08	2	0	691	6	3	37
5_1	5	1	12:35:08	0	0	386	9	8	38
5_1	5	1	12:35:08	1	4	608	10	9	39
5_1	5	1	12:35:08	2	2	95	18	14	40
5_1	5	1	12:35:08	0	2	207	14	4	41
5_1	5	1	12:35:08	4	3	160	4	12	42
5_1	5	1	12:35:08	2	4	82	3	10	43
5_1	5	1	12:35:08	6	4	2475	14	14	44
5_1	5	1	12:35:08	1	2	274	9	15	45
5_1	5	1	12:35:08	0	4	428	18	8	46
5_1	5	1	12:35:08	0	3	1025	11	15	47
5_1	5	1	12:35:08	4	4	685	11	7	48
5_1	5	1	12:35:08	6	5	2077	11	11	49
5_1	5	1	12:35:08	3	3	561	12	15	50
5_1	5	1	12:35:08	4	3	2816	14	5	51
5_1	5	1	12:35:08	3	4	3838	2	18	52
5_1	5	1	12:35:08	0	4	274	3	12	53
5_1	5	1	12:35:08	2	4	795	10	6	54
5_1	5	1	12:35:08	1	4	6	2	16	55
5_1	5	1	12:35:08	6	5	2776	6	6	56
5_1	5	1	12:35:08	6	5	119	15	15	57
5_1	5	1	12:35:08	0	5	27	5	2	58
5_1	5	1	12:35:08	3	5	2705	6	9	59
5_1	5	1	12:35:08	2	5	119	17	9	60
5_1	5	1	12:35:08	1	4	3448	6	12	61
5_1	5	1	12:35:08	0	3	843	13	7	62
5_1	5	1	12:35:08	6	2	1916	16	16	63
5_1	5	1	12:35:08	1	4	133	7	1	64
5_1	5	1	12:35:08	6	4	2514	12	12	65
5_1	5	1	12:35:08	1	3	1473	9	10	66
5_1	5	1	12:35:08	6	4	739	9	9	67
5_1	5	1	12:35:08	6	4	113	17	17	68
5_1	5	1	12:35:08	1	4	459	4	1	69
5_1	5	1	12:35:08	0	6	1747	16	3	70
5_1	5	1	12:35:08	4	0	987	16	1	71
5_1	5	1	12:35:08	6	4	1535	18	18	72
5_2	11	2	15:10:57	6	3	1796	14	14	1
5_2	11	2	15:10:57	6	2	2322	9	9	2
5_2	11	2	15:10:57	0	4	2734	15	5	3
5_2	11	2	15:10:57	6	4	454	5	5	4
5_2	11	2	15:10:57	0	1	2588	9	8	5
5_2	11	2	15:10:57	0	2	1784	16	3	6
5_2	11	2	15:10:57	1	5	800	10	9	7
5_2	11	2	15:10:57	4	5	584	10	11	8
5_2	11	2	15:10:57	1	2	546	4	1	9
5_2	11	2	15:10:57	2	1	51	16	13	10
5_2	11	2	15:10:57	0	3	1392	12	2	11
5_2	11	2	15:10:57	3	2	152	17	6	12
5_2	11	2	15:10:57	4	3	1127	4	12	13
5_2	11	2	15:10:57	3	2	963	1	13	14
5_2	11	2	15:10:57	3	1	712	6	9	15
5_2	11	2	15:10:57	6	3	989	11	11	16
5_2	11	2	15:10:57	2	2	1641	10	6	17
5_2	11	2	15:10:57	1	1	421	4	11	18
5_2	11	2	15:10:57	2	0	975	5	18	19
5_2	11	2	15:10:57	0	0	52	7	17	20
5_2	11	2	15:10:57	3	1	991	14	16	21
5_2	11	2	15:10:57	6	1	95	6	6	22
5_2	11	2	15:10:57	1	1	675	1	18	23
5_2	11	2	15:10:57	2	3	483	11	8	24
5_2	11	2	15:10:57	4	2	2946	15	4	25
5_2	11	2	15:10:57	6	3	1642	17	17	26
5_2	11	2	15:10:57	0	2	951	14	4	27
5_2	11	2	15:10:57	2	2	4030	15	17	28
5_2	11	2	15:10:57	6	3	5056	3	3	29
5_2	11	2	15:10:57	0	2	5755	13	7	30
5_2	11	2	15:10:57	2	1	3712	18	14	31
5_2	11	2	15:10:57	0	1	2642	1	3	32
5_2	11	2	15:10:57	1	2	2622	8	6	33
5_2	11	2	15:10:57	0	3	1461	13	7	34
5_2	11	2	15:10:57	0	2	823	5	2	35
5_2	11	2	15:10:57	2	1	719	12	11	36
5_2	11	2	15:10:57	2	2	2951	13	2	37
5_2	11	2	15:10:57	2	2	948	17	9	38
5_2	11	2	15:10:57	0	1	751	18	8	39
5_2	11	2	15:10:57	3	4	692	2	18	40
5_2	11	2	15:10:57	6	2	2194	7	7	41
5_2	11	2	15:10:57	4	1	1592	11	7	42
5_2	11	2	15:10:57	4	3	4327	14	5	43
5_2	11	2	15:10:57	3	2	4133	7	5	44
5_2	11	2	15:10:57	3	1	5140	12	15	45
5_2	11	2	15:10:57	1	2	6906	8	16	46
5_2	11	2	15:10:57	6	2	2720	1	1	47
5_2	11	2	15:10:57	1	2	579	9	15	48
5_2	11	2	15:10:57	2	2	2118	18	4	49
5_2	11	2	15:10:57	0	2	451	11	15	50
5_2	11	2	15:10:57	6	3	366	4	4	51
5_2	11	2	15:10:57	6	2	6980	13	13	52
5_2	11	2	15:10:57	1	1	1061	2	16	53
5_2	11	2	15:10:57	1	0	1929	2	14	54
5_2	11	2	15:10:57	0	1	211	17	13	55
5_2	11	2	15:10:57	1	1	3201	9	10	56
5_2	11	2	15:10:57	6	2	834	16	16	57
5_2	11	2	15:10:57	6	2	386	15	15	58
5_2	11	2	15:10:57	6	1	1348	12	12	59
5_2	11	2	15:10:57	1	2	4842	5	17	60
5_2	11	2	15:10:57	2	1	3488	6	3	61
5_2	11	2	15:10:57	3	1	7974	8	10	62
5_2	11	2	15:10:57	1	2	1255	7	1	63
5_2	11	2	15:10:57	1	2	3327	6	12	64
5_2	11	2	15:10:57	6	1	5009	8	8	65
5_2	11	2	15:10:57	0	3	2422	3	12	66
5_2	11	2	15:10:57	4	3	1062	16	1	67
5_2	11	2	15:10:57	6	1	2996	18	18	68
5_2	11	2	15:10:57	6	2	8880	10	10	69
5_2	11	2	15:10:57	6	2	8928	2	2	70
5_2	11	2	15:10:57	2	2	951	3	10	71
5_2	11	2	15:10:57	1	3	584	3	14	72
5_2	15	2	16:05:39	0	0	1236	9	8	1
5_2	15	2	16:05:39	3	0	339	17	6	2
5_2	15	2	16:05:39	0	0	135	7	17	3
5_2	15	2	16:05:39	4	2	5444	14	5	4
5_2	15	2	16:05:39	6	3	5281	17	17	5
5_2	15	2	16:05:39	6	0	105	12	12	6
5_2	15	2	16:05:39	6	2	4387	4	4	7
5_2	15	2	16:05:39	3	3	3176	1	13	8
5_2	15	2	16:05:39	2	0	231	10	6	9
5_2	15	2	16:05:39	1	0	912	9	10	10
5_2	15	2	16:05:39	1	0	64	5	17	11
5_2	15	2	16:05:39	0	0	0	5	2	12
5_2	15	2	16:05:39	1	1	2804	3	14	13
5_2	15	2	16:05:39	4	2	2054	16	1	14
5_2	15	2	16:05:39	4	0	24	10	11	15
5_2	15	2	16:05:39	6	1	3198	8	8	16
5_2	15	2	16:05:39	1	0	229	4	1	17
5_2	15	2	16:05:39	0	0	409	1	3	18
5_2	15	2	16:05:39	6	2	2349	2	2	19
5_2	15	2	16:05:39	6	2	2274	9	9	20
5_2	15	2	16:05:39	3	0	58	2	18	21
5_2	15	2	16:05:39	4	1	6901	15	4	22
5_2	15	2	16:05:39	1	0	102	10	9	23
5_2	15	2	16:05:39	4	0	512	4	12	24
5_2	15	2	16:05:39	2	0	33	5	18	25
5_2	15	2	16:05:39	3	0	82	8	10	26
5_2	15	2	16:05:39	4	0	2216	11	7	27
5_2	15	2	16:05:39	6	0	48	14	14	28
5_2	15	2	16:05:39	1	0	3975	8	16	29
5_2	15	2	16:05:39	1	0	1845	6	12	30
5_2	15	2	16:05:39	6	0	600	6	6	31
5_2	15	2	16:05:39	1	0	614	9	15	32
5_2	15	2	16:05:39	1	0	2099	8	6	33
5_2	15	2	16:05:39	2	0	2531	18	14	34
5_2	15	2	16:05:39	6	2	2693	18	18	35
5_2	15	2	16:05:39	1	0	197	2	16	36
5_2	15	2	16:05:39	6	2	1542	7	7	37
5_2	15	2	16:05:39	6	2	2297	15	15	38
5_2	15	2	16:05:39	0	3	2097	16	3	39
5_2	15	2	16:05:39	2	0	402	17	9	40
5_2	15	2	16:05:39	0	0	2223	13	7	41
5_2	15	2	16:05:39	6	4	4824	11	11	42
5_2	15	2	16:05:39	2	0	924	11	8	43
5_2	15	2	16:05:39	6	0	338	5	5	44
5_2	15	2	16:05:39	6	3	3703	16	16	45
5_2	15	2	16:05:39	0	0	37	17	13	46
5_2	15	2	16:05:39	0	1	901	14	4	47
5_2	15	2	16:05:39	2	0	377	18	4	48
5_2	15	2	16:05:39	1	0	229	1	18	49
5_2	15	2	16:05:39	1	1	886	7	1	50
5_2	15	2	16:05:39	2	1	1589	16	13	51
5_2	15	2	16:05:39	6	0	2596	13	13	52
5_2	15	2	16:05:39	1	0	143	2	14	53
5_2	15	2	16:05:39	1	0	130	4	11	54
5_2	15	2	16:05:39	3	0	304	7	5	55
5_2	15	2	16:05:39	3	0	1924	14	16	56
5_2	15	2	16:05:39	2	0	311	3	10	57
5_2	15	2	16:05:39	2	2	3040	6	3	58
5_2	15	2	16:05:39	6	3	1059	1	1	59
5_2	15	2	16:05:39	0	2	4421	13	7	60
5_2	15	2	16:05:39	2	0	97	12	11	61
5_2	15	2	16:05:39	6	1	758	3	3	62
5_2	15	2	16:05:39	2	0	261	13	2	63
5_2	15	2	16:05:39	0	2	3386	18	8	64
5_2	15	2	16:05:39	0	0	2375	3	12	65
5_2	15	2	16:05:39	6	4	4591	10	10	66
5_2	15	2	16:05:39	3	2	3682	12	15	67
5_2	15	2	16:05:39	3	0	3282	6	9	68
5_2	15	2	16:05:39	0	0	484	15	5	69
5_2	15	2	16:05:39	0	0	3065	12	2	70
5_2	15	2	16:05:39	2	0	3	15	17	71
5_2	15	2	16:05:39	0	0	438	11	15	72
5_2	20	2	16:58:26	3	0	1490	12	15	1
5_2	20	2	16:58:26	6	1	671	8	8	2
5_2	20	2	16:58:26	0	0	783	1	3	3
5_2	20	2	16:58:26	3	0	375	7	5	4
5_2	20	2	16:58:26	4	0	162	15	4	5
5_2	20	2	16:58:26	2	0	99	5	18	6
5_2	20	2	16:58:26	6	2	951	5	5	7
5_2	20	2	16:58:26	2	0	1138	11	8	8
5_2	20	2	16:58:26	6	3	69	6	6	9
5_2	20	2	16:58:26	6	2	297	1	1	10
5_2	20	2	16:58:26	6	2	189	18	18	11
5_2	20	2	16:58:26	6	3	333	10	10	12
5_2	20	2	16:58:26	3	0	672	2	18	13
5_2	20	2	16:58:26	1	0	160	3	14	14
5_2	20	2	16:58:26	6	1	662	14	14	15
5_2	20	2	16:58:26	0	0	208	18	8	16
5_2	20	2	16:58:26	6	1	182	13	13	17
5_2	20	2	16:58:26	1	0	129	2	14	18
5_2	20	2	16:58:26	0	0	136	15	5	19
5_2	20	2	16:58:26	1	0	164	8	16	20
5_2	20	2	16:58:26	2	0	83	10	6	21
5_2	20	2	16:58:26	1	0	114	9	10	22
5_2	20	2	16:58:26	3	0	84	8	10	23
5_2	20	2	16:58:26	6	3	65	17	17	24
5_2	20	2	16:58:26	2	0	182	12	11	25
5_2	20	2	16:58:26	6	1	49	3	3	26
5_2	20	2	16:58:26	0	0	57	13	7	27
5_2	20	2	16:58:26	1	0	85	8	6	28
5_2	20	2	16:58:26	2	0	159	17	9	29
5_2	20	2	16:58:26	0	0	131	16	3	30
5_2	20	2	16:58:26	4	0	3574	11	7	31
5_2	20	2	16:58:26	6	2	134	4	4	32
5_2	20	2	16:58:26	3	0	135	17	6	33
5_2	20	2	16:58:26	4	1	203	4	12	34
5_2	20	2	16:58:26	2	0	339	18	14	35
5_2	20	2	16:58:26	0	0	135	13	7	36
5_2	20	2	16:58:26	0	0	547	11	15	37
5_2	20	2	16:58:26	6	1	293	11	11	38
5_2	20	2	16:58:26	0	0	99	14	4	39
5_2	20	2	16:58:26	1	0	157	1	18	40
5_2	20	2	16:58:26	6	2	45	7	7	41
5_2	20	2	16:58:26	6	3	393	2	2	42
5_2	20	2	16:58:26	2	0	66	16	13	43
5_2	20	2	16:58:26	1	0	259	9	15	44
5_2	20	2	16:58:26	0	0	170	9	8	45
5_2	20	2	16:58:26	2	0	319	13	2	46
5_2	20	2	16:58:26	1	0	231	5	17	47
5_2	20	2	16:58:26	6	0	287	15	15	48
5_2	20	2	16:58:26	1	0	199	6	12	49
5_2	20	2	16:58:26	1	0	127	2	16	50
5_2	20	2	16:58:26	0	0	235	17	13	51
5_2	20	2	16:58:26	3	0	99	6	9	52
5_2	20	2	16:58:26	0	0	281	12	2	53
5_2	20	2	16:58:26	0	0	173	3	12	54
5_2	20	2	16:58:26	1	0	179	4	1	55
5_2	20	2	16:58:26	2	2	223	6	3	56
5_2	20	2	16:58:26	1	0	65	4	11	57
5_2	20	2	16:58:26	2	0	22	15	17	58
5_2	20	2	16:58:26	3	0	144	1	13	59
5_2	20	2	16:58:26	6	2	1160	16	16	60
5_2	20	2	16:58:26	6	2	711	9	9	61
5_2	20	2	16:58:26	4	0	312	10	11	62
5_2	20	2	16:58:26	1	0	120	10	9	63
5_2	20	2	16:58:26	3	0	136	14	16	64
5_2	20	2	16:58:26	4	0	213	16	1	65
5_2	20	2	16:58:26	1	0	323	7	1	66
5_2	20	2	16:58:26	2	0	193	3	10	67
5_2	20	2	16:58:26	0	0	225	7	17	68
5_2	20	2	16:58:26	4	0	580	14	5	69
5_2	20	2	16:58:26	6	1	271	12	12	70
5_2	20	2	16:58:26	2	0	175	18	4	71
5_2	20	2	16:58:26	0	0	195	5	2	72
5_2	27	2	14:52:56	0	0	7066	7	17	1
5_2	27	2	14:52:56	3	2	2254	6	9	2
5_2	27	2	14:52:56	6	3	889	1	1	3
5_2	27	2	14:52:56	0	1	1831	5	2	4
5_2	27	2	14:52:56	2	0	549	11	8	5
5_2	27	2	14:52:56	2	0	1229	16	13	6
5_2	27	2	14:52:56	0	1	1061	15	5	7
5_2	27	2	14:52:56	6	2	330	15	15	8
5_2	27	2	14:52:56	0	2	334	17	13	9
5_2	27	2	14:52:56	4	0	19	16	1	10
5_2	27	2	14:52:56	2	0	504	13	2	11
5_2	27	2	14:52:56	6	3	721	7	7	12
5_2	27	2	14:52:56	1	0	90	4	11	13
5_2	27	2	14:52:56	0	0	694	14	4	14
5_2	27	2	14:52:56	1	3	372	1	18	15
5_2	27	2	14:52:56	6	5	353	10	10	16
5_2	27	2	14:52:56	1	0	658	7	1	17
5_2	27	2	14:52:56	1	2	1986	6	12	18
5_2	27	2	14:52:56	2	0	665	6	3	19
5_2	27	2	14:52:56	2	0	372	5	18	20
5_2	27	2	14:52:56	3	0	257	1	13	21
5_2	27	2	14:52:56	1	0	421	9	10	22
5_2	27	2	14:52:56	6	3	254	5	5	23
5_2	27	2	14:52:56	0	0	74	18	8	24
5_2	27	2	14:52:56	0	0	24	9	8	25
5_2	27	2	14:52:56	2	1	626	10	6	26
5_2	27	2	14:52:56	4	0	852	4	12	27
5_2	27	2	14:52:56	1	2	127	3	14	28
5_2	27	2	14:52:56	6	0	1459	18	18	29
5_2	27	2	14:52:56	4	0	73	15	4	30
5_2	27	2	14:52:56	6	2	273	14	14	31
5_2	27	2	14:52:56	6	6	546	16	16	32
5_2	27	2	14:52:56	1	2	371	2	14	33
5_2	27	2	14:52:56	4	1	672	11	7	34
5_2	27	2	14:52:56	0	3	191	3	12	35
5_2	27	2	14:52:56	2	2	256	18	14	36
5_2	27	2	14:52:56	2	0	6	17	9	37
5_2	27	2	14:52:56	0	2	524	13	7	38
5_2	27	2	14:52:56	3	0	96	12	15	39
5_2	27	2	14:52:56	6	6	96	8	8	40
5_2	27	2	14:52:56	3	2	1957	7	5	41
5_2	27	2	14:52:56	1	0	209	5	17	42
5_2	27	2	14:52:56	3	1	184	14	16	43
5_2	27	2	14:52:56	6	6	180	11	11	44
5_2	27	2	14:52:56	0	0	477	11	15	45
5_2	27	2	14:52:56	6	6	134	2	2	46
5_2	27	2	14:52:56	3	2	146	8	10	47
5_2	27	2	14:52:56	1	0	2	2	16	48
5_2	27	2	14:52:56	1	3	133	9	15	49
5_2	27	2	14:52:56	1	0	35	10	9	50
5_2	27	2	14:52:56	0	0	52	1	3	51
5_2	27	2	14:52:56	0	0	467	12	2	52
5_2	27	2	14:52:56	6	0	84	3	3	53
5_2	27	2	14:52:56	2	6	137	12	11	54
5_2	27	2	14:52:56	3	0	85	2	18	55
5_2	27	2	14:52:56	6	2	580	6	6	56
5_2	27	2	14:52:56	4	2	25	14	5	57
5_2	27	2	14:52:56	1	0	596	8	6	58
5_2	27	2	14:52:56	6	0	245	13	13	59
5_2	27	2	14:52:56	4	0	290	10	11	60
5_2	27	2	14:52:56	1	0	249	4	1	61
5_2	27	2	14:52:56	6	6	137	17	17	62
5_2	27	2	14:52:56	2	0	69	15	17	63
5_2	27	2	14:52:56	0	2	7	13	7	64
5_2	27	2	14:52:56	6	6	1271	12	12	65
5_2	27	2	14:52:56	0	0	55	16	3	66
5_2	27	2	14:52:56	1	0	181	8	16	67
5_2	27	2	14:52:56	2	2	257	18	4	68
5_2	27	2	14:52:56	6	3	101	9	9	69
5_2	27	2	14:52:56	2	1	143	3	10	70
5_2	27	2	14:52:56	6	0	67	4	4	71
5_2	27	2	14:52:56	3	0	454	17	6	72
5_2	32	2	15:41:12	6	3	1340	16	16	1
5_2	32	2	15:41:12	1	1	3810	3	14	2
5_2	32	2	15:41:12	6	2	811	9	9	3
5_2	32	2	15:41:12	3	0	2920	7	5	4
5_2	32	2	15:41:12	6	2	1459	4	4	5
5_2	32	2	15:41:12	0	0	511	9	8	6
5_2	32	2	15:41:12	0	0	719	12	2	7
5_2	32	2	15:41:12	0	0	406	15	5	8
5_2	32	2	15:41:12	1	0	756	2	16	9
5_2	32	2	15:41:12	1	1	539	2	14	10
5_2	32	2	15:41:12	0	1	839	16	3	11
5_2	32	2	15:41:12	2	0	102	16	13	12
5_2	32	2	15:41:12	1	0	145	4	11	13
5_2	32	2	15:41:12	6	2	1188	13	13	14
5_2	32	2	15:41:12	1	0	693	1	18	15
5_2	32	2	15:41:12	6	2	353	5	5	16
5_2	32	2	15:41:12	1	0	225	6	12	17
5_2	32	2	15:41:12	2	0	404	3	10	18
5_2	32	2	15:41:12	1	1	5	4	1	19
5_2	32	2	15:41:12	0	2	1618	14	4	20
5_2	32	2	15:41:12	2	0	115	12	11	21
5_2	32	2	15:41:12	6	2	2083	1	1	22
5_2	32	2	15:41:12	0	0	136	13	7	23
5_2	32	2	15:41:12	2	2	1184	11	8	24
5_2	32	2	15:41:12	6	4	2704	7	7	25
5_2	32	2	15:41:12	0	0	456	17	13	26
5_2	32	2	15:41:12	6	2	1011	6	6	27
5_2	32	2	15:41:12	2	0	234	18	4	28
5_2	32	2	15:41:12	3	0	193	17	6	29
5_2	32	2	15:41:12	2	3	1443	17	9	30
5_2	32	2	15:41:12	0	0	671	11	15	31
5_2	32	2	15:41:12	2	0	286	15	17	32
5_2	32	2	15:41:12	1	0	197	10	9	33
5_2	32	2	15:41:12	6	1	950	14	14	34
5_2	32	2	15:41:12	0	1	823	1	3	35
5_2	32	2	15:41:12	1	0	1200	8	16	36
5_2	32	2	15:41:12	1	2	583	8	6	37
5_2	32	2	15:41:12	2	0	81	18	14	38
5_2	32	2	15:41:12	6	4	577	17	17	39
5_2	32	2	15:41:12	3	0	0	1	13	40
5_2	32	2	15:41:12	3	0	244	2	18	41
5_2	32	2	15:41:12	2	0	161	6	3	42
5_2	32	2	15:41:12	1	1	1041	7	1	43
5_2	32	2	15:41:12	2	0	360	5	18	44
5_2	32	2	15:41:12	4	0	254	15	4	45
5_2	32	2	15:41:12	6	0	83	15	15	46
5_2	32	2	15:41:12	3	0	241	12	15	47
5_2	32	2	15:41:12	4	0	769	16	1	48
5_2	32	2	15:41:12	6	4	390	10	10	49
5_2	32	2	15:41:12	6	3	1113	18	18	50
5_2	32	2	15:41:12	0	0	726	5	2	51
5_2	32	2	15:41:12	4	0	531	11	7	52
5_2	32	2	15:41:12	1	1	1519	9	15	53
5_2	32	2	15:41:12	2	2	1046	13	2	54
5_2	32	2	15:41:12	0	0	962	3	12	55
5_2	32	2	15:41:12	3	0	602	6	9	56
5_2	32	2	15:41:12	0	0	2538	18	8	57
5_2	32	2	15:41:12	4	0	833	10	11	58
5_2	32	2	15:41:12	4	2	993	14	5	59
5_2	32	2	15:41:12	3	2	192	14	16	60
5_2	32	2	15:41:12	1	0	737	5	17	61
5_2	32	2	15:41:12	1	0	163	9	10	62
5_2	32	2	15:41:12	0	0	1891	7	17	63
5_2	32	2	15:41:12	6	2	277	12	12	64
5_2	32	2	15:41:12	2	0	487	10	6	65
5_2	32	2	15:41:12	6	2	256	8	8	66
5_2	32	2	15:41:12	6	0	51	11	11	67
5_2	32	2	15:41:12	6	0	50	3	3	68
5_2	32	2	15:41:12	6	4	494	2	2	69
5_2	32	2	15:41:12	4	0	97	4	12	70
5_2	32	2	15:41:12	0	0	311	13	7	71
5_2	32	2	15:41:12	3	0	544	8	10	72
5_2	35	2	16:28:05	3	0	5877	1	13	1
5_2	35	2	16:28:05	2	0	179	3	10	2
5_2	35	2	16:28:05	6	0	1192	14	14	3
5_2	35	2	16:28:05	1	0	84	8	16	4
5_2	35	2	16:28:05	0	0	131	7	17	5
5_2	35	2	16:28:05	1	0	38	2	14	6
5_2	35	2	16:28:05	0	0	648	16	3	7
5_2	35	2	16:28:05	4	0	1564	16	1	8
5_2	35	2	16:28:05	6	6	192	2	2	9
5_2	35	2	16:28:05	1	0	177	5	17	10
5_2	35	2	16:28:05	0	0	46	18	8	11
5_2	35	2	16:28:05	0	0	149	3	12	12
5_2	35	2	16:28:05	1	0	73	10	9	13
5_2	35	2	16:28:05	2	0	163	16	13	14
5_2	35	2	16:28:05	3	0	94	8	10	15
5_2	35	2	16:28:05	6	6	71	12	12	16
5_2	35	2	16:28:05	0	0	384	13	7	17
5_2	35	2	16:28:05	6	0	1122	3	3	18
5_2	35	2	16:28:05	0	0	212	11	15	19
5_2	35	2	16:28:05	1	0	161	1	18	20
5_2	35	2	16:28:05	2	0	16	12	11	21
5_2	35	2	16:28:05	0	0	991	9	8	22
5_2	35	2	16:28:05	1	0	62	2	16	23
5_2	35	2	16:28:05	1	0	34	4	1	24
5_2	35	2	16:28:05	2	0	99	13	2	25
5_2	35	2	16:28:05	4	0	39	10	11	26
5_2	35	2	16:28:05	6	6	350	6	6	27
5_2	35	2	16:28:05	3	0	1813	6	9	28
5_2	35	2	16:28:05	0	0	185	17	13	29
5_2	35	2	16:28:05	6	6	84	17	17	30
5_2	35	2	16:28:05	6	6	450	13	13	31
5_2	35	2	16:28:05	6	0	24	9	9	32
5_2	35	2	16:28:05	1	0	245	9	10	33
5_2	35	2	16:28:05	4	0	1235	11	7	34
5_2	35	2	16:28:05	4	0	87	4	12	35
5_2	35	2	16:28:05	6	6	188	4	4	36
5_2	35	2	16:28:05	0	0	23	15	5	37
5_2	35	2	16:28:05	2	0	377	18	14	38
5_2	35	2	16:28:05	2	0	484	6	3	39
5_2	35	2	16:28:05	0	0	131	13	7	40
5_2	35	2	16:28:05	2	0	113	5	18	41
5_2	35	2	16:28:05	1	0	114	4	11	42
5_2	35	2	16:28:05	1	0	51	6	12	43
5_2	35	2	16:28:05	1	0	6	8	6	44
5_2	35	2	16:28:05	1	0	53	9	15	45
5_2	35	2	16:28:05	6	6	1506	7	7	46
5_2	35	2	16:28:05	2	0	242	10	6	47
5_2	35	2	16:28:05	4	0	112	14	5	48
5_2	35	2	16:28:05	3	0	913	14	16	49
5_2	35	2	16:28:05	6	6	72	11	11	50
5_2	35	2	16:28:05	6	6	368	18	18	51
5_2	35	2	16:28:05	6	0	38	16	16	52
5_2	35	2	16:28:05	6	6	23	15	15	53
5_2	35	2	16:28:05	2	0	72	18	4	54
5_2	35	2	16:28:05	0	0	182	1	3	55
5_2	35	2	16:28:05	2	0	482	11	8	56
5_2	35	2	16:28:05	2	0	2369	17	9	57
5_2	35	2	16:28:05	2	0	275	15	17	58
5_2	35	2	16:28:05	0	0	243	12	2	59
5_2	35	2	16:28:05	6	6	274	1	1	60
5_2	35	2	16:28:05	3	0	1875	17	6	61
5_2	35	2	16:28:05	6	6	2249	8	8	62
5_2	35	2	16:28:05	3	0	403	12	15	63
5_2	35	2	16:28:05	1	0	168	7	1	64
5_2	35	2	16:28:05	1	0	376	3	14	65
5_2	35	2	16:28:05	4	0	100	15	4	66
5_2	35	2	16:28:05	3	0	398	7	5	67
5_2	35	2	16:28:05	0	0	3	14	4	68
5_2	35	2	16:28:05	3	0	6	2	18	69
5_2	35	2	16:28:05	0	0	165	5	2	70
5_2	35	2	16:28:05	6	6	170	5	5	71
5_2	35	2	16:28:05	6	6	134	10	10	72
5_2	39	2	10:06:13	1	3	10681	7	1	1
5_2	39	2	10:06:13	4	4	3083	10	11	2
5_2	39	2	10:06:13	0	5	2519	15	5	3
5_2	39	2	10:06:13	1	5	1411	4	11	4
5_2	39	2	10:06:13	0	5	2501	1	3	5
5_2	39	2	10:06:13	2	4	396	18	14	6
5_2	39	2	10:06:13	2	4	3844	16	13	7
5_2	39	2	10:06:13	1	3	1029	1	18	8
5_2	39	2	10:06:13	0	2	1126	7	17	9
5_2	39	2	10:06:13	0	5	2208	14	4	10
5_2	39	2	10:06:13	1	4	1236	3	14	11
5_2	39	2	10:06:13	2	6	1493	11	8	12
5_2	39	2	10:06:13	6	6	1135	4	4	13
5_2	39	2	10:06:13	2	5	1424	3	10	14
5_2	39	2	10:06:13	4	4	5553	16	1	15
5_2	39	2	10:06:13	6	6	285	10	10	16
5_2	39	2	10:06:13	2	4	7606	18	4	17
5_2	39	2	10:06:13	4	4	400	15	4	18
5_2	39	2	10:06:13	6	6	285	6	6	19
5_2	39	2	10:06:13	3	2	629	6	9	20
5_2	39	2	10:06:13	1	3	901	9	10	21
5_2	39	2	10:06:13	2	3	1114	10	6	22
5_2	39	2	10:06:13	0	2	383	13	7	23
5_2	39	2	10:06:13	6	6	328	11	11	24
5_2	39	2	10:06:13	1	3	5446	2	14	25
5_2	39	2	10:06:13	1	3	596	4	1	26
5_2	39	2	10:06:13	2	2	1636	15	17	27
5_2	39	2	10:06:13	1	2	1009	5	17	28
5_2	39	2	10:06:13	1	4	1367	8	16	29
5_2	39	2	10:06:13	2	5	738	13	2	30
5_2	39	2	10:06:13	0	4	2129	9	8	31
5_2	39	2	10:06:13	3	3	210	14	16	32
5_2	39	2	10:06:13	6	6	1101	9	9	33
5_2	39	2	10:06:13	6	6	235	12	12	34
5_2	39	2	10:06:13	3	5	690	2	18	35
5_2	39	2	10:06:13	4	4	393	11	7	36
5_2	39	2	10:06:13	1	3	3233	10	9	37
5_2	39	2	10:06:13	3	3	2067	7	5	38
5_2	39	2	10:06:13	6	5	2020	17	17	39
5_2	39	2	10:06:13	0	2	1526	17	13	40
5_2	39	2	10:06:13	4	4	5489	14	5	41
5_2	39	2	10:06:13	2	2	983	12	11	42
5_2	39	2	10:06:13	6	6	399	18	18	43
5_2	39	2	10:06:13	6	6	136	1	1	44
5_2	39	2	10:06:13	1	5	8053	9	15	45
5_2	39	2	10:06:13	0	3	1045	5	2	46
5_2	39	2	10:06:13	6	6	242	2	2	47
5_2	39	2	10:06:13	6	6	128	5	5	48
5_2	39	2	10:06:13	6	6	102	15	15	49
5_2	39	2	10:06:13	0	3	1377	3	12	50
5_2	39	2	10:06:13	2	3	804	5	18	51
5_2	39	2	10:06:13	4	3	594	4	12	52
5_2	39	2	10:06:13	6	6	4609	7	7	53
5_2	39	2	10:06:13	0	4	1048	13	7	54
5_2	39	2	10:06:13	1	3	502	2	16	55
5_2	39	2	10:06:13	1	2	592	6	12	56
5_2	39	2	10:06:13	2	2	1120	6	3	57
5_2	39	2	10:06:13	0	3	822	16	3	58
5_2	39	2	10:06:13	6	3	1792	13	13	59
5_2	39	2	10:06:13	1	4	504	8	6	60
5_2	39	2	10:06:13	0	3	1435	18	8	61
5_2	39	2	10:06:13	3	3	2018	1	13	62
5_2	39	2	10:06:13	2	2	3298	17	9	63
5_2	39	2	10:06:13	6	6	346	8	8	64
5_2	39	2	10:06:13	6	6	483	3	3	65
5_2	39	2	10:06:13	6	6	1571	14	14	66
5_2	39	2	10:06:13	3	2	583	17	6	67
5_2	39	2	10:06:13	0	2	337	11	15	68
5_2	39	2	10:06:13	6	4	725	16	16	69
5_2	39	2	10:06:13	0	1	3683	12	2	70
5_2	39	2	10:06:13	3	1	3716	12	15	71
5_2	39	2	10:06:13	3	1	1495	8	10	72
5_2	5	2	14:18:18	6	0	10206	10	10	1
5_2	5	2	14:18:18	0	0	834	5	2	2
5_2	5	2	14:18:18	3	0	7521	14	16	3
5_2	5	2	14:18:18	0	0	3573	1	3	4
5_2	5	2	14:18:18	4	0	1300	16	1	5
5_2	5	2	14:18:18	6	1	856	18	18	6
5_2	5	2	14:18:18	3	2	1282	12	15	7
5_2	5	2	14:18:18	3	0	757	6	9	8
5_2	5	2	14:18:18	3	0	947	7	5	9
5_2	5	2	14:18:18	2	1	2834	15	17	10
5_2	5	2	14:18:18	3	2	1819	2	18	11
5_2	5	2	14:18:18	0	0	22	17	13	12
5_2	5	2	14:18:18	0	2	805	13	7	13
5_2	5	2	14:18:18	1	1	562	10	9	14
5_2	5	2	14:18:18	4	0	190	11	7	15
5_2	5	2	14:18:18	1	2	619	1	18	16
5_2	5	2	14:18:18	3	2	439	1	13	17
5_2	5	2	14:18:18	1	1	1061	2	14	18
5_2	5	2	14:18:18	3	0	122	17	6	19
5_2	5	2	14:18:18	4	0	83	15	4	20
5_2	5	2	14:18:18	0	0	208	12	2	21
5_2	5	2	14:18:18	6	1	2214	1	1	22
5_2	5	2	14:18:18	6	2	613	2	2	23
5_2	5	2	14:18:18	6	2	427	8	8	24
5_2	5	2	14:18:18	2	1	231	6	3	25
5_2	5	2	14:18:18	0	0	3259	13	7	26
5_2	5	2	14:18:18	6	0	420	9	9	27
5_2	5	2	14:18:18	2	4	911	18	14	28
5_2	5	2	14:18:18	6	1	94	6	6	29
5_2	5	2	14:18:18	6	1	35	3	3	30
5_2	5	2	14:18:18	1	0	676	5	17	31
5_2	5	2	14:18:18	1	0	3957	8	16	32
5_2	5	2	14:18:18	1	0	310	2	16	33
5_2	5	2	14:18:18	0	1	228	9	8	34
5_2	5	2	14:18:18	1	0	134	4	11	35
5_2	5	2	14:18:18	2	1	1234	10	6	36
5_2	5	2	14:18:18	1	0	3841	9	15	37
5_2	5	2	14:18:18	2	3	995	13	2	38
5_2	5	2	14:18:18	2	2	1921	16	13	39
5_2	5	2	14:18:18	6	3	103	12	12	40
5_2	5	2	14:18:18	4	2	482	4	12	41
5_2	5	2	14:18:18	2	1	127	12	11	42
5_2	5	2	14:18:18	6	1	263	16	16	43
5_2	5	2	14:18:18	3	0	4897	8	10	44
5_2	5	2	14:18:18	1	2	4091	4	1	45
5_2	5	2	14:18:18	6	4	722	11	11	46
5_2	5	2	14:18:18	0	3	417	16	3	47
5_2	5	2	14:18:18	1	2	69	8	6	48
5_2	5	2	14:18:18	0	3	1014	11	15	49
5_2	5	2	14:18:18	6	4	881	17	17	50
5_2	5	2	14:18:18	6	3	778	14	14	51
5_2	5	2	14:18:18	2	1	363	11	8	52
5_2	5	2	14:18:18	4	1	821	10	11	53
5_2	5	2	14:18:18	0	0	1273	3	12	54
5_2	5	2	14:18:18	6	2	384	4	4	55
5_2	5	2	14:18:18	1	1	4242	9	10	56
5_2	5	2	14:18:18	1	3	243	7	1	57
5_2	5	2	14:18:18	0	2	2577	7	17	58
5_2	5	2	14:18:18	2	2	319	17	9	59
5_2	5	2	14:18:18	0	1	2258	18	8	60
5_2	5	2	14:18:18	1	3	248	6	12	61
5_2	5	2	14:18:18	0	2	489	14	4	62
5_2	5	2	14:18:18	6	2	2421	13	13	63
5_2	5	2	14:18:18	1	3	374	3	14	64
5_2	5	2	14:18:18	2	1	4865	3	10	65
5_2	5	2	14:18:18	2	1	612	18	4	66
5_2	5	2	14:18:18	2	0	368	5	18	67
5_2	5	2	14:18:18	6	0	3416	5	5	68
5_2	5	2	14:18:18	0	0	999	15	5	69
5_2	5	2	14:18:18	6	2	219	7	7	70
5_2	5	2	14:18:18	4	2	58	14	5	71
5_2	5	2	14:18:18	6	0	1399	15	15	72
5_3	11	3	15:24:28	6	1	7437	13	13	1
5_3	11	3	15:24:28	0	2	1216	15	5	2
5_3	11	3	15:24:28	4	0	4162	11	7	3
5_3	11	3	15:24:28	6	1	738	6	6	4
5_3	11	3	15:24:28	4	0	1996	10	11	5
5_3	11	3	15:24:28	3	3	816	7	5	6
5_3	11	3	15:24:28	4	2	532	15	4	7
5_3	11	3	15:24:28	6	2	2095	3	3	8
5_3	11	3	15:24:28	6	0	757	12	12	9
5_3	11	3	15:24:28	3	3	647	12	15	10
5_3	11	3	15:24:28	6	1	404	18	18	11
5_3	11	3	15:24:28	6	1	2626	9	9	12
5_3	11	3	15:24:28	4	3	479	14	5	13
5_3	11	3	15:24:28	2	1	694	12	11	14
5_3	11	3	15:24:28	6	2	4819	16	16	15
5_3	11	3	15:24:28	3	2	3817	17	6	16
5_3	11	3	15:24:28	1	3	758	8	16	17
5_3	11	3	15:24:28	6	1	565	14	14	18
5_3	11	3	15:24:28	2	2	1761	5	18	19
5_3	11	3	15:24:28	1	1	2059	2	14	20
5_3	11	3	15:24:28	2	0	2227	13	2	21
5_3	11	3	15:24:28	3	2	145	6	9	22
5_3	11	3	15:24:28	0	1	179	11	15	23
5_3	11	3	15:24:28	0	1	441	9	8	24
5_3	11	3	15:24:28	3	1	864	1	13	25
5_3	11	3	15:24:28	6	2	80	1	1	26
5_3	11	3	15:24:28	6	2	400	4	4	27
5_3	11	3	15:24:28	0	2	358	7	17	28
5_3	11	3	15:24:28	2	2	2414	10	6	29
5_3	11	3	15:24:28	0	2	984	13	7	30
5_3	11	3	15:24:28	1	2	727	4	11	31
5_3	11	3	15:24:28	4	0	1732	16	1	32
5_3	11	3	15:24:28	2	0	1927	17	9	33
5_3	11	3	15:24:28	1	2	1684	4	1	34
5_3	11	3	15:24:28	6	3	1024	8	8	35
5_3	11	3	15:24:28	1	2	639	3	14	36
5_3	11	3	15:24:28	0	2	3415	5	2	37
5_3	11	3	15:24:28	2	3	886	6	3	38
5_3	11	3	15:24:28	6	1	661	2	2	39
5_3	11	3	15:24:28	2	1	2430	16	13	40
5_3	11	3	15:24:28	1	3	11012	10	9	41
5_3	11	3	15:24:28	6	2	966	15	15	42
5_3	11	3	15:24:28	6	3	4388	5	5	43
5_3	11	3	15:24:28	0	4	2200	16	3	44
5_3	11	3	15:24:28	1	4	1060	5	17	45
5_3	11	3	15:24:28	6	3	1621	10	10	46
5_3	11	3	15:24:28	0	1	1433	17	13	47
5_3	11	3	15:24:28	0	2	2192	12	2	48
5_3	11	3	15:24:28	2	2	1828	11	8	49
5_3	11	3	15:24:28	1	3	1316	9	15	50
5_3	11	3	15:24:28	0	1	1272	1	3	51
5_3	11	3	15:24:28	1	1	1646	9	10	52
5_3	11	3	15:24:28	3	3	3138	14	16	53
5_3	11	3	15:24:28	2	1	2176	15	17	54
5_3	11	3	15:24:28	1	2	194	1	18	55
5_3	11	3	15:24:28	6	1	481	17	17	56
5_3	11	3	15:24:28	2	2	1920	18	4	57
5_3	11	3	15:24:28	4	2	3046	4	12	58
5_3	11	3	15:24:28	1	0	1790	7	1	59
5_3	11	3	15:24:28	3	3	7	8	10	60
5_3	11	3	15:24:28	1	2	628	8	6	61
5_3	11	3	15:24:28	0	1	1079	13	7	62
5_3	11	3	15:24:28	0	2	390	14	4	63
5_3	11	3	15:24:28	1	2	670	6	12	64
5_3	11	3	15:24:28	3	1	2392	2	18	65
5_3	11	3	15:24:28	1	1	3253	2	16	66
5_3	11	3	15:24:28	6	3	1047	7	7	67
5_3	11	3	15:24:28	2	2	771	3	10	68
5_3	11	3	15:24:28	6	2	2073	11	11	69
5_3	11	3	15:24:28	0	1	1869	18	8	70
5_3	11	3	15:24:28	0	1	3011	3	12	71
5_3	11	3	15:24:28	2	3	1748	18	14	72
5_3	15	3	16:18:22	3	1	17907	8	10	1
5_3	15	3	16:18:22	6	0	6377	18	18	2
5_3	15	3	16:18:22	6	3	1937	11	11	3
5_3	15	3	16:18:22	3	0	2355	17	6	4
5_3	15	3	16:18:22	3	3	920	6	9	5
5_3	15	3	16:18:22	1	1	2408	2	16	6
5_3	15	3	16:18:22	0	0	3288	9	8	7
5_3	15	3	16:18:22	3	1	2374	7	5	8
5_3	15	3	16:18:22	0	0	877	1	3	9
5_3	15	3	16:18:22	4	1	2117	10	11	10
5_3	15	3	16:18:22	1	2	4528	9	10	11
5_3	15	3	16:18:22	2	0	1448	16	13	12
5_3	15	3	16:18:22	1	0	741	9	15	13
5_3	15	3	16:18:22	1	0	3000	10	9	14
5_3	15	3	16:18:22	0	1	1203	15	5	15
5_3	15	3	16:18:22	6	2	3875	1	1	16
5_3	15	3	16:18:22	3	1	1209	12	15	17
5_3	15	3	16:18:22	6	1	2260	4	4	18
5_3	15	3	16:18:22	0	0	1318	17	13	19
5_3	15	3	16:18:22	6	0	2152	9	9	20
5_3	15	3	16:18:22	0	0	1830	16	3	21
5_3	15	3	16:18:22	4	1	1495	11	7	22
5_3	15	3	16:18:22	1	1	1953	5	17	23
5_3	15	3	16:18:22	0	1	3654	3	12	24
5_3	15	3	16:18:22	2	0	1848	12	11	25
5_3	15	3	16:18:22	0	1	1907	18	8	26
5_3	15	3	16:18:22	6	3	2722	3	3	27
5_3	15	3	16:18:22	6	4	2676	14	14	28
5_3	15	3	16:18:22	6	4	4382	7	7	29
5_3	15	3	16:18:22	2	1	2164	3	10	30
5_3	15	3	16:18:22	2	0	2776	6	3	31
5_3	15	3	16:18:22	1	1	1274	2	14	32
5_3	15	3	16:18:22	4	2	2191	15	4	33
5_3	15	3	16:18:22	0	1	1941	14	4	34
5_3	15	3	16:18:22	2	2	3606	17	9	35
5_3	15	3	16:18:22	0	2	11545	13	7	36
5_3	15	3	16:18:22	1	1	1454	6	12	37
5_3	15	3	16:18:22	2	0	592	11	8	38
5_3	15	3	16:18:22	3	0	4447	1	13	39
5_3	15	3	16:18:22	2	1	1198	15	17	40
5_3	15	3	16:18:22	0	2	533	7	17	41
5_3	15	3	16:18:22	2	1	2801	13	2	42
5_3	15	3	16:18:22	1	0	1395	8	6	43
5_3	15	3	16:18:22	1	0	1506	7	1	44
5_3	15	3	16:18:22	6	0	1280	15	15	45
5_3	15	3	16:18:22	6	5	3239	10	10	46
5_3	15	3	16:18:22	1	2	4178	3	14	47
5_3	15	3	16:18:22	2	0	1230	5	18	48
5_3	15	3	16:18:22	6	3	1446	12	12	49
5_3	15	3	16:18:22	3	3	825	2	18	50
5_3	15	3	16:18:22	1	0	642	8	16	51
5_3	15	3	16:18:22	6	0	608	6	6	52
5_3	15	3	16:18:22	6	5	2180	5	5	53
5_3	15	3	16:18:22	2	0	5079	18	14	54
5_3	15	3	16:18:22	0	0	2100	11	15	55
5_3	15	3	16:18:22	2	1	262	10	6	56
5_3	15	3	16:18:22	0	0	232	12	2	57
5_3	15	3	16:18:22	4	3	1775	4	12	58
5_3	15	3	16:18:22	1	0	424	1	18	59
5_3	15	3	16:18:22	6	5	689	17	17	60
5_3	15	3	16:18:22	1	1	1143	4	11	61
5_3	15	3	16:18:22	6	0	5312	2	2	62
5_3	15	3	16:18:22	3	0	366	14	16	63
5_3	15	3	16:18:22	1	0	1045	4	1	64
5_3	15	3	16:18:22	0	0	195	5	2	65
5_3	15	3	16:18:22	6	0	2995	13	13	66
5_3	15	3	16:18:22	4	1	104	16	1	67
5_3	15	3	16:18:22	0	2	3043	13	7	68
5_3	15	3	16:18:22	6	4	1895	16	16	69
5_3	15	3	16:18:22	6	2	992	8	8	70
5_3	15	3	16:18:22	2	0	574	18	4	71
5_3	15	3	16:18:22	4	0	642	14	5	72
5_3	20	3	17:09:05	3	0	462	12	15	1
5_3	20	3	17:09:05	1	0	1648	1	18	2
5_3	20	3	17:09:05	1	0	873	6	12	3
5_3	20	3	17:09:05	6	2	1057	4	4	4
5_3	20	3	17:09:05	0	0	51	3	12	5
5_3	20	3	17:09:05	1	0	192	8	6	6
5_3	20	3	17:09:05	0	0	225	14	4	7
5_3	20	3	17:09:05	4	0	243	4	12	8
5_3	20	3	17:09:05	1	0	1843	9	15	9
5_3	20	3	17:09:05	1	0	271	5	17	10
5_3	20	3	17:09:05	1	0	110	2	16	11
5_3	20	3	17:09:05	1	0	208	4	1	12
5_3	20	3	17:09:05	1	0	167	7	1	13
5_3	20	3	17:09:05	2	0	198	11	8	14
5_3	20	3	17:09:05	3	0	238	17	6	15
5_3	20	3	17:09:05	2	0	199	3	10	16
5_3	20	3	17:09:05	1	0	134	9	10	17
5_3	20	3	17:09:05	0	0	884	9	8	18
5_3	20	3	17:09:05	6	3	190	10	10	19
5_3	20	3	17:09:05	6	3	1090	2	2	20
5_3	20	3	17:09:05	2	0	342	18	14	21
5_3	20	3	17:09:05	0	0	368	17	13	22
5_3	20	3	17:09:05	3	0	262	6	9	23
5_3	20	3	17:09:05	4	0	259	15	4	24
5_3	20	3	17:09:05	2	0	296	16	13	25
5_3	20	3	17:09:05	0	0	258	12	2	26
5_3	20	3	17:09:05	0	0	281	1	3	27
5_3	20	3	17:09:05	1	0	159	4	11	28
5_3	20	3	17:09:05	1	0	232	8	16	29
5_3	20	3	17:09:05	6	3	141	11	11	30
5_3	20	3	17:09:05	4	0	530	16	1	31
5_3	20	3	17:09:05	3	0	298	1	13	32
5_3	20	3	17:09:05	4	0	227	11	7	33
5_3	20	3	17:09:05	1	0	168	10	9	34
5_3	20	3	17:09:05	6	2	472	7	7	35
5_3	20	3	17:09:05	3	0	288	7	5	36
5_3	20	3	17:09:05	6	3	1286	16	16	37
5_3	20	3	17:09:05	0	0	498	13	7	38
5_3	20	3	17:09:05	6	2	247	15	15	39
5_3	20	3	17:09:05	6	3	263	6	6	40
5_3	20	3	17:09:05	6	1	1600	1	1	41
5_3	20	3	17:09:05	0	0	262	18	8	42
5_3	20	3	17:09:05	6	2	386	14	14	43
5_3	20	3	17:09:05	3	0	274	14	16	44
5_3	20	3	17:09:05	6	2	372	17	17	45
5_3	20	3	17:09:05	0	0	352	13	7	46
5_3	20	3	17:09:05	2	0	178	6	3	47
5_3	20	3	17:09:05	1	0	213	2	14	48
5_3	20	3	17:09:05	3	0	226	8	10	49
5_3	20	3	17:09:05	0	0	181	16	3	50
5_3	20	3	17:09:05	0	0	223	15	5	51
5_3	20	3	17:09:05	6	0	194	8	8	52
5_3	20	3	17:09:05	2	0	180	12	11	53
5_3	20	3	17:09:05	6	2	232	12	12	54
5_3	20	3	17:09:05	1	0	161	3	14	55
5_3	20	3	17:09:05	2	0	207	17	9	56
5_3	20	3	17:09:05	0	0	248	7	17	57
5_3	20	3	17:09:05	2	0	197	13	2	58
5_3	20	3	17:09:05	2	0	236	5	18	59
5_3	20	3	17:09:05	3	0	231	2	18	60
5_3	20	3	17:09:05	4	0	221	10	11	61
5_3	20	3	17:09:05	2	0	256	10	6	62
5_3	20	3	17:09:05	6	1	246	13	13	63
5_3	20	3	17:09:05	6	2	161	9	9	64
5_3	20	3	17:09:05	4	0	179	14	5	65
5_3	20	3	17:09:05	6	2	281	18	18	66
5_3	20	3	17:09:05	2	0	222	18	4	67
5_3	20	3	17:09:05	2	0	241	15	17	68
5_3	20	3	17:09:05	0	0	271	11	15	69
5_3	20	3	17:09:05	0	0	257	5	2	70
5_3	20	3	17:09:05	6	2	2582	5	5	71
5_3	20	3	17:09:05	6	2	325	3	3	72
5_3	27	3	15:03:38	3	2	2468	17	6	1
5_3	27	3	15:03:38	3	0	2017	7	5	2
5_3	27	3	15:03:38	6	6	209	7	7	3
5_3	27	3	15:03:38	0	2	414	16	3	4
5_3	27	3	15:03:38	2	0	132	12	11	5
5_3	27	3	15:03:38	0	0	417	7	17	6
5_3	27	3	15:03:38	6	6	1	13	13	7
5_3	27	3	15:03:38	6	0	404	3	3	8
5_3	27	3	15:03:38	2	0	1282	16	13	9
5_3	27	3	15:03:38	2	3	544	11	8	10
5_3	27	3	15:03:38	2	0	482	17	9	11
5_3	27	3	15:03:38	2	0	708	10	6	12
5_3	27	3	15:03:38	6	4	1147	15	15	13
5_3	27	3	15:03:38	1	2	176	3	14	14
5_3	27	3	15:03:38	0	0	35	13	7	15
5_3	27	3	15:03:38	0	0	404	3	12	16
5_3	27	3	15:03:38	1	0	421	6	12	17
5_3	27	3	15:03:38	3	0	493	8	10	18
5_3	27	3	15:03:38	3	2	657	6	9	19
5_3	27	3	15:03:38	0	2	228	1	3	20
5_3	27	3	15:03:38	6	1	89	4	4	21
5_3	27	3	15:03:38	1	0	318	8	6	22
5_3	27	3	15:03:38	1	0	390	10	9	23
5_3	27	3	15:03:38	6	2	1262	8	8	24
5_3	27	3	15:03:38	0	0	3	5	2	25
5_3	27	3	15:03:38	1	0	72	9	15	26
5_3	27	3	15:03:38	0	0	178	18	8	27
5_3	27	3	15:03:38	3	0	119	1	13	28
5_3	27	3	15:03:38	4	0	263	14	5	29
5_3	27	3	15:03:38	4	0	195	15	4	30
5_3	27	3	15:03:38	4	0	19	4	12	31
5_3	27	3	15:03:38	3	0	55	12	15	32
5_3	27	3	15:03:38	6	6	165	14	14	33
5_3	27	3	15:03:38	6	2	932	16	16	34
5_3	27	3	15:03:38	3	0	303	14	16	35
5_3	27	3	15:03:38	4	2	610	16	1	36
5_3	27	3	15:03:38	1	1	488	2	14	37
5_3	27	3	15:03:38	6	6	117	18	18	38
5_3	27	3	15:03:38	2	0	135	15	17	39
5_3	27	3	15:03:38	6	2	100	9	9	40
5_3	27	3	15:03:38	6	6	542	5	5	41
5_3	27	3	15:03:38	6	4	2656	1	1	42
5_3	27	3	15:03:38	2	0	257	5	18	43
5_3	27	3	15:03:38	6	2	116	17	17	44
5_3	27	3	15:03:38	0	0	6	14	4	45
5_3	27	3	15:03:38	1	3	438	4	11	46
5_3	27	3	15:03:38	6	6	44	12	12	47
5_3	27	3	15:03:38	1	0	707	5	17	48
5_3	27	3	15:03:38	2	0	68	13	2	49
5_3	27	3	15:03:38	6	6	14	10	10	50
5_3	27	3	15:03:38	1	2	258	2	16	51
5_3	27	3	15:03:38	0	3	4872	11	15	52
5_3	27	3	15:03:38	0	1	3567	17	13	53
5_3	27	3	15:03:38	0	0	281	15	5	54
5_3	27	3	15:03:38	1	0	432	4	1	55
5_3	27	3	15:03:38	2	2	238	18	4	56
5_3	27	3	15:03:38	1	0	488	7	1	57
5_3	27	3	15:03:38	6	6	471	11	11	58
5_3	27	3	15:03:38	0	0	399	13	7	59
5_3	27	3	15:03:38	2	2	247	6	3	60
5_3	27	3	15:03:38	1	0	487	9	10	61
5_3	27	3	15:03:38	0	0	502	9	8	62
5_3	27	3	15:03:38	2	0	175	18	14	63
5_3	27	3	15:03:38	4	0	292	11	7	64
5_3	27	3	15:03:38	0	0	97	12	2	65
5_3	27	3	15:03:38	1	3	1606	8	16	66
5_3	27	3	15:03:38	6	6	785	2	2	67
5_3	27	3	15:03:38	4	0	1305	10	11	68
5_3	27	3	15:03:38	1	2	1985	1	18	69
5_3	27	3	15:03:38	3	0	128	2	18	70
5_3	27	3	15:03:38	2	0	150	3	10	71
5_3	27	3	15:03:38	6	0	624	6	6	72
5_3	32	3	15:52:05	6	1	751	1	1	1
5_3	32	3	15:52:05	6	2	1376	12	12	2
5_3	32	3	15:52:05	1	1	769	1	18	3
5_3	32	3	15:52:05	6	2	301	15	15	4
5_3	32	3	15:52:05	2	0	320	17	9	5
5_3	32	3	15:52:05	0	0	95	7	17	6
5_3	32	3	15:52:05	0	0	81	13	7	7
5_3	32	3	15:52:05	0	0	18	5	2	8
5_3	32	3	15:52:05	0	2	231	18	8	9
5_3	32	3	15:52:05	6	2	1056	14	14	10
5_3	32	3	15:52:05	1	0	1283	8	6	11
5_3	32	3	15:52:05	1	0	223	2	16	12
5_3	32	3	15:52:05	1	0	370	9	15	13
5_3	32	3	15:52:05	4	1	257	16	1	14
5_3	32	3	15:52:05	3	0	100	6	9	15
5_3	32	3	15:52:05	1	0	608	5	17	16
5_3	32	3	15:52:05	0	0	1173	12	2	17
5_3	32	3	15:52:05	6	3	1685	11	11	18
5_3	32	3	15:52:05	2	2	481	13	2	19
5_3	32	3	15:52:05	1	1	1455	3	14	20
5_3	32	3	15:52:05	6	2	753	6	6	21
5_3	32	3	15:52:05	6	1	401	13	13	22
5_3	32	3	15:52:05	6	0	239	3	3	23
5_3	32	3	15:52:05	6	0	376	16	16	24
5_3	32	3	15:52:05	2	0	117	18	4	25
5_3	32	3	15:52:05	3	0	807	7	5	26
5_3	32	3	15:52:05	0	2	5	9	8	27
5_3	32	3	15:52:05	6	0	306	5	5	28
5_3	32	3	15:52:05	6	1	53	17	17	29
5_3	32	3	15:52:05	1	1	210	6	12	30
5_3	32	3	15:52:05	0	2	1054	17	13	31
5_3	32	3	15:52:05	4	0	834	4	12	32
5_3	32	3	15:52:05	0	0	178	13	7	33
5_3	32	3	15:52:05	2	0	85	15	17	34
5_3	32	3	15:52:05	6	0	419	18	18	35
5_3	32	3	15:52:05	6	1	170	2	2	36
5_3	32	3	15:52:05	4	0	6	14	5	37
5_3	32	3	15:52:05	6	0	317	9	9	38
5_3	32	3	15:52:05	4	0	5	10	11	39
5_3	32	3	15:52:05	0	0	86	14	4	40
5_3	32	3	15:52:05	2	0	453	12	11	41
5_3	32	3	15:52:05	1	0	337	4	11	42
5_3	32	3	15:52:05	0	0	166	15	5	43
5_3	32	3	15:52:05	4	2	195	15	4	44
5_3	32	3	15:52:05	1	0	21	4	1	45
5_3	32	3	15:52:05	2	0	208	11	8	46
5_3	32	3	15:52:05	1	0	7	7	1	47
5_3	32	3	15:52:05	1	0	3	9	10	48
5_3	32	3	15:52:05	6	3	949	7	7	49
5_3	32	3	15:52:05	3	1	2254	1	13	50
5_3	32	3	15:52:05	6	2	1638	8	8	51
5_3	32	3	15:52:05	2	0	22	18	14	52
5_3	32	3	15:52:05	1	0	1103	10	9	53
5_3	32	3	15:52:05	3	0	386	14	16	54
5_3	32	3	15:52:05	3	0	0	8	10	55
5_3	32	3	15:52:05	3	0	356	2	18	56
5_3	32	3	15:52:05	3	2	483	17	6	57
5_3	32	3	15:52:05	2	2	34	16	13	58
5_3	32	3	15:52:05	2	0	33	10	6	59
5_3	32	3	15:52:05	2	0	33	6	3	60
5_3	32	3	15:52:05	6	0	85	4	4	61
5_3	32	3	15:52:05	2	0	6	3	10	62
5_3	32	3	15:52:05	0	0	466	16	3	63
5_3	32	3	15:52:05	0	0	309	3	12	64
5_3	32	3	15:52:05	1	0	88	2	14	65
5_3	32	3	15:52:05	6	4	135	10	10	66
5_3	32	3	15:52:05	1	0	68	8	16	67
5_3	32	3	15:52:05	0	0	326	1	3	68
5_3	32	3	15:52:05	2	0	117	5	18	69
5_3	32	3	15:52:05	0	0	104	11	15	70
5_3	32	3	15:52:05	3	0	194	12	15	71
5_3	32	3	15:52:05	4	0	386	11	7	72
5_3	35	3	16:38:22	1	0	537	4	1	1
5_3	35	3	16:38:22	6	3	2326	5	5	2
5_3	35	3	16:38:22	6	4	1839	14	14	3
5_3	35	3	16:38:22	4	1	118	11	7	4
5_3	35	3	16:38:22	3	5	2839	14	16	5
5_3	35	3	16:38:22	2	4	306	17	9	6
5_3	35	3	16:38:22	0	5	2338	13	7	7
5_3	35	3	16:38:22	4	3	99	15	4	8
5_3	35	3	16:38:22	1	4	73	2	14	9
5_3	35	3	16:38:22	1	2	179	9	10	10
5_3	35	3	16:38:22	0	4	23	11	15	11
5_3	35	3	16:38:22	1	3	4083	8	16	12
5_3	35	3	16:38:22	6	1	72	13	13	13
5_3	35	3	16:38:22	1	5	322	2	16	14
5_3	35	3	16:38:22	2	4	49	12	11	15
5_3	35	3	16:38:22	3	3	22	8	10	16
5_3	35	3	16:38:22	0	4	88	5	2	17
5_3	35	3	16:38:22	4	5	60	4	12	18
5_3	35	3	16:38:22	1	3	97	7	1	19
5_3	35	3	16:38:22	0	5	21	16	3	20
5_3	35	3	16:38:22	6	4	161	17	17	21
5_3	35	3	16:38:22	2	2	143	6	3	22
5_3	35	3	16:38:22	4	3	114	10	11	23
5_3	35	3	16:38:22	3	4	1	1	13	24
5_3	35	3	16:38:22	6	5	147	11	11	25
5_3	35	3	16:38:22	0	3	1686	3	12	26
5_3	35	3	16:38:22	2	1	199	15	17	27
5_3	35	3	16:38:22	1	2	9	3	14	28
5_3	35	3	16:38:22	2	4	77	10	6	29
5_3	35	3	16:38:22	3	3	167	2	18	30
5_3	35	3	16:38:22	0	5	43	12	2	31
5_3	35	3	16:38:22	6	3	50	1	1	32
5_3	35	3	16:38:22	0	0	127	17	13	33
5_3	35	3	16:38:22	0	6	117	13	7	34
5_3	35	3	16:38:22	6	3	103	7	7	35
5_3	35	3	16:38:22	1	2	97	6	12	36
5_3	35	3	16:38:22	3	4	134	12	15	37
5_3	35	3	16:38:22	6	2	164	18	18	38
5_3	35	3	16:38:22	0	3	132	1	3	39
5_3	35	3	16:38:22	6	4	81	16	16	40
5_3	35	3	16:38:22	1	3	80	10	9	41
5_3	35	3	16:38:22	1	2	143	8	6	42
5_3	35	3	16:38:22	2	1	81	13	2	43
5_3	35	3	16:38:22	0	1	145	14	4	44
5_3	35	3	16:38:22	6	3	36	2	2	45
5_3	35	3	16:38:22	6	2	52	12	12	46
5_3	35	3	16:38:22	0	4	130	15	5	47
5_3	35	3	16:38:22	6	5	41	10	10	48
5_3	35	3	16:38:22	2	1	6	5	18	49
5_3	35	3	16:38:22	6	4	128	6	6	50
5_3	35	3	16:38:22	6	3	37	15	15	51
5_3	35	3	16:38:22	2	2	39	11	8	52
5_3	35	3	16:38:22	6	1	104	3	3	53
5_3	35	3	16:38:22	4	5	179	14	5	54
5_3	35	3	16:38:22	3	3	89	7	5	55
5_3	35	3	16:38:22	6	2	136	4	4	56
5_3	35	3	16:38:22	1	1	53	5	17	57
5_3	35	3	16:38:22	3	1	99	6	9	58
5_3	35	3	16:38:22	2	2	56	18	14	59
5_3	35	3	16:38:22	1	3	36	1	18	60
5_3	35	3	16:38:22	0	4	172	7	17	61
5_3	35	3	16:38:22	2	1	64	18	4	62
5_3	35	3	16:38:22	0	3	99	9	8	63
5_3	35	3	16:38:22	6	3	78	8	8	64
5_3	35	3	16:38:22	1	2	134	4	11	65
5_3	35	3	16:38:22	4	1	10	16	1	66
5_3	35	3	16:38:22	2	4	127	3	10	67
5_3	35	3	16:38:22	3	3	2	17	6	68
5_3	35	3	16:38:22	2	5	166	16	13	69
5_3	35	3	16:38:22	0	1	180	18	8	70
5_3	35	3	16:38:22	6	6	174	9	9	71
5_3	35	3	16:38:22	1	3	6	9	15	72
5_3	39	3	10:19:24	4	4	7405	4	12	1
5_3	39	3	10:19:24	2	5	971	5	18	2
5_3	39	3	10:19:24	2	4	7528	3	10	3
5_3	39	3	10:19:24	6	6	256	4	4	4
5_3	39	3	10:19:24	0	6	1178	18	8	5
5_3	39	3	10:19:24	2	3	3236	13	2	6
5_3	39	3	10:19:24	1	5	799	1	18	7
5_3	39	3	10:19:24	1	3	3622	2	14	8
5_3	39	3	10:19:24	2	5	692	18	4	9
5_3	39	3	10:19:24	1	4	1168	7	1	10
5_3	39	3	10:19:24	6	6	309	16	16	11
5_3	39	3	10:19:24	6	6	136	5	5	12
5_3	39	3	10:19:24	6	6	3412	10	10	13
5_3	39	3	10:19:24	3	3	554	6	9	14
5_3	39	3	10:19:24	6	5	1351	9	9	15
5_3	39	3	10:19:24	0	3	711	7	17	16
5_3	39	3	10:19:24	1	2	413	9	15	17
5_3	39	3	10:19:24	1	4	3651	8	6	18
5_3	39	3	10:19:24	1	3	1555	2	16	19
5_3	39	3	10:19:24	6	6	18	12	12	20
5_3	39	3	10:19:24	6	6	69	7	7	21
5_3	39	3	10:19:24	1	5	1776	5	17	22
5_3	39	3	10:19:24	2	3	1303	6	3	23
5_3	39	3	10:19:24	0	2	1104	13	7	24
5_3	39	3	10:19:24	6	3	608	14	14	25
5_3	39	3	10:19:24	0	4	6087	11	15	26
5_3	39	3	10:19:24	3	2	1634	14	16	27
5_3	39	3	10:19:24	1	5	974	8	16	28
5_3	39	3	10:19:24	3	4	1252	2	18	29
5_3	39	3	10:19:24	6	6	295	3	3	30
5_3	39	3	10:19:24	1	3	4771	4	11	31
5_3	39	3	10:19:24	6	6	527	8	8	32
5_3	39	3	10:19:24	1	4	822	4	1	33
5_3	39	3	10:19:24	0	4	1824	16	3	34
5_3	39	3	10:19:24	2	5	2158	12	11	35
5_3	39	3	10:19:24	3	6	211	12	15	36
5_3	39	3	10:19:24	1	3	2593	6	12	37
5_3	39	3	10:19:24	3	4	2021	8	10	38
5_3	39	3	10:19:24	0	5	552	1	3	39
5_3	39	3	10:19:24	0	4	2463	3	12	40
5_3	39	3	10:19:24	6	6	358	2	2	41
5_3	39	3	10:19:24	4	3	854	10	11	42
5_3	39	3	10:19:24	0	5	1010	17	13	43
5_3	39	3	10:19:24	6	6	502	11	11	44
5_3	39	3	10:19:24	0	3	594	14	4	45
5_3	39	3	10:19:24	0	4	416	12	2	46
5_3	39	3	10:19:24	2	2	2614	16	13	47
5_3	39	3	10:19:24	1	5	3735	9	10	48
5_3	39	3	10:19:24	4	3	4279	14	5	49
5_3	39	3	10:19:24	4	4	4430	15	4	50
5_3	39	3	10:19:24	0	3	2543	9	8	51
5_3	39	3	10:19:24	6	5	360	1	1	52
5_3	39	3	10:19:24	6	4	1310	13	13	53
5_3	39	3	10:19:24	0	3	742	5	2	54
5_3	39	3	10:19:24	3	5	3744	17	6	55
5_3	39	3	10:19:24	6	6	8374	18	18	56
5_3	39	3	10:19:24	0	4	482	15	5	57
5_3	39	3	10:19:24	2	5	641	11	8	58
5_3	39	3	10:19:24	1	3	1180	3	14	59
5_3	39	3	10:19:24	2	5	4666	15	17	60
5_3	39	3	10:19:24	3	4	180	1	13	61
5_3	39	3	10:19:24	2	3	128	17	9	62
5_3	39	3	10:19:24	4	3	1095	11	7	63
5_3	39	3	10:19:24	2	2	658	18	14	64
5_3	39	3	10:19:24	0	3	1126	13	7	65
5_3	39	3	10:19:24	6	5	1507	6	6	66
5_3	39	3	10:19:24	1	4	6849	10	9	67
5_3	39	3	10:19:24	4	3	1492	16	1	68
5_3	39	3	10:19:24	2	3	5944	10	6	69
5_3	39	3	10:19:24	6	6	496	17	17	70
5_3	39	3	10:19:24	3	4	1524	7	5	71
5_3	39	3	10:19:24	6	6	127	15	15	72
5_3	5	3	14:33:00	1	0	1417	10	9	1
5_3	5	3	14:33:00	4	1	691	14	5	2
5_3	5	3	14:33:00	1	1	488	5	17	3
5_3	5	3	14:33:00	0	1	523	17	13	4
5_3	5	3	14:33:00	6	0	289	9	9	5
5_3	5	3	14:33:00	0	0	4	15	5	6
5_3	5	3	14:33:00	6	1	543	15	15	7
5_3	5	3	14:33:00	1	2	725	4	1	8
5_3	5	3	14:33:00	0	0	564	12	2	9
5_3	5	3	14:33:00	2	0	2562	6	3	10
5_3	5	3	14:33:00	0	0	962	5	2	11
5_3	5	3	14:33:00	1	0	2243	2	14	12
5_3	5	3	14:33:00	0	1	359	14	4	13
5_3	5	3	14:33:00	6	2	1093	12	12	14
5_3	5	3	14:33:00	1	1	582	6	12	15
5_3	5	3	14:33:00	4	0	24	10	11	16
5_3	5	3	14:33:00	3	0	1507	6	9	17
5_3	5	3	14:33:00	0	1	324	13	7	18
5_3	5	3	14:33:00	6	0	2770	18	18	19
5_3	5	3	14:33:00	3	0	2387	1	13	20
5_3	5	3	14:33:00	2	3	1457	5	18	21
5_3	5	3	14:33:00	3	3	931	2	18	22
5_3	5	3	14:33:00	2	0	1102	16	13	23
5_3	5	3	14:33:00	3	0	1048	17	6	24
5_3	5	3	14:33:00	2	1	439	18	4	25
5_3	5	3	14:33:00	0	0	182	3	12	26
5_3	5	3	14:33:00	6	0	338	3	3	27
5_3	5	3	14:33:00	3	0	53	12	15	28
5_3	5	3	14:33:00	0	0	1012	16	3	29
5_3	5	3	14:33:00	2	0	407	15	17	30
5_3	5	3	14:33:00	1	0	2437	3	14	31
5_3	5	3	14:33:00	4	1	4371	15	4	32
5_3	5	3	14:33:00	1	0	31	1	18	33
5_3	5	3	14:33:00	2	0	3121	17	9	34
5_3	5	3	14:33:00	0	1	274	1	3	35
5_3	5	3	14:33:00	6	1	81	6	6	36
5_3	5	3	14:33:00	6	0	148	14	14	37
5_3	5	3	14:33:00	6	1	3766	1	1	38
5_3	5	3	14:33:00	6	4	1160	10	10	39
5_3	5	3	14:33:00	3	0	645	7	5	40
5_3	5	3	14:33:00	1	1	388	4	11	41
5_3	5	3	14:33:00	2	0	85	3	10	42
5_3	5	3	14:33:00	6	1	6	13	13	43
5_3	5	3	14:33:00	2	1	20	12	11	44
5_3	5	3	14:33:00	3	0	2351	14	16	45
5_3	5	3	14:33:00	1	0	1764	9	10	46
5_3	5	3	14:33:00	1	0	321	9	15	47
5_3	5	3	14:33:00	0	2	512	9	8	48
5_3	5	3	14:33:00	6	4	526	7	7	49
5_3	5	3	14:33:00	6	0	2790	11	11	50
5_3	5	3	14:33:00	6	0	146	16	16	51
5_3	5	3	14:33:00	2	0	1476	13	2	52
5_3	5	3	14:33:00	4	0	2180	11	7	53
5_3	5	3	14:33:00	1	0	740	2	16	54
5_3	5	3	14:33:00	0	0	150	7	17	55
5_3	5	3	14:33:00	0	0	383	13	7	56
5_3	5	3	14:33:00	4	1	147	4	12	57
5_3	5	3	14:33:00	4	0	357	16	1	58
5_3	5	3	14:33:00	1	0	117	8	16	59
5_3	5	3	14:33:00	2	0	839	18	14	60
5_3	5	3	14:33:00	6	1	615	8	8	61
5_3	5	3	14:33:00	6	0	1315	17	17	62
5_3	5	3	14:33:00	2	0	865	10	6	63
5_3	5	3	14:33:00	3	0	147	8	10	64
5_3	5	3	14:33:00	0	1	581	18	8	65
5_3	5	3	14:33:00	2	0	14	11	8	66
5_3	5	3	14:33:00	6	0	675	2	2	67
5_3	5	3	14:33:00	1	0	403	8	6	68
5_3	5	3	14:33:00	6	0	50	4	4	69
5_3	5	3	14:33:00	1	0	33	7	1	70
5_3	5	3	14:33:00	0	0	2128	11	15	71
5_3	5	3	14:33:00	6	1	418	5	5	72
5_4	11	4	15:36:38	0	2	684	16	3	1
5_4	11	4	15:36:38	1	1	929	4	11	2
5_4	11	4	15:36:38	3	2	1533	1	13	3
5_4	11	4	15:36:38	2	1	488	11	8	4
5_4	11	4	15:36:38	3	2	1790	8	10	5
5_4	11	4	15:36:38	1	2	548	8	6	6
5_4	11	4	15:36:38	2	1	725	5	18	7
5_4	11	4	15:36:38	3	1	315	2	18	8
5_4	11	4	15:36:38	6	3	1730	10	10	9
5_4	11	4	15:36:38	2	0	1270	18	14	10
5_4	11	4	15:36:38	6	3	134	13	13	11
5_4	11	4	15:36:38	4	2	1122	15	4	12
5_4	11	4	15:36:38	3	2	224	12	15	13
5_4	11	4	15:36:38	6	3	74	2	2	14
5_4	11	4	15:36:38	1	3	147	2	14	15
5_4	11	4	15:36:38	1	0	437	2	16	16
5_4	11	4	15:36:38	2	1	101	13	2	17
5_4	11	4	15:36:38	4	1	881	14	5	18
5_4	11	4	15:36:38	6	2	149	4	4	19
5_4	11	4	15:36:38	2	2	2731	18	4	20
5_4	11	4	15:36:38	3	2	1236	6	9	21
5_4	11	4	15:36:38	3	1	834	7	5	22
5_4	11	4	15:36:38	0	1	1155	15	5	23
5_4	11	4	15:36:38	0	1	897	3	12	24
5_4	11	4	15:36:38	6	2	835	9	9	25
5_4	11	4	15:36:38	6	1	867	6	6	26
5_4	11	4	15:36:38	6	3	373	11	11	27
5_4	11	4	15:36:38	2	2	130	6	3	28
5_4	11	4	15:36:38	6	1	373	17	17	29
5_4	11	4	15:36:38	4	1	447	16	1	30
5_4	11	4	15:36:38	1	0	439	6	12	31
5_4	11	4	15:36:38	0	0	200	1	3	32
5_4	11	4	15:36:38	6	0	600	8	8	33
5_4	11	4	15:36:38	0	2	2184	13	7	34
5_4	11	4	15:36:38	1	1	243	3	14	35
5_4	11	4	15:36:38	1	0	1793	9	10	36
5_4	11	4	15:36:38	0	2	183	11	15	37
5_4	11	4	15:36:38	6	2	906	7	7	38
5_4	11	4	15:36:38	2	1	290	10	6	39
5_4	11	4	15:36:38	2	1	366	17	9	40
5_4	11	4	15:36:38	4	1	294	11	7	41
5_4	11	4	15:36:38	1	2	89	4	1	42
5_4	11	4	15:36:38	6	2	124	5	5	43
5_4	11	4	15:36:38	1	0	1204	10	9	44
5_4	11	4	15:36:38	1	0	624	8	16	45
5_4	11	4	15:36:38	0	0	385	14	4	46
5_4	11	4	15:36:38	0	1	405	12	2	47
5_4	11	4	15:36:38	0	2	595	7	17	48
5_4	11	4	15:36:38	0	1	466	13	7	49
5_4	11	4	15:36:38	2	0	1253	16	13	50
5_4	11	4	15:36:38	1	1	336	7	1	51
5_4	11	4	15:36:38	2	1	787	15	17	52
5_4	11	4	15:36:38	6	1	1111	16	16	53
5_4	11	4	15:36:38	0	1	504	18	8	54
5_4	11	4	15:36:38	2	2	674	12	11	55
5_4	11	4	15:36:38	3	3	176	17	6	56
5_4	11	4	15:36:38	0	1	455	5	2	57
5_4	11	4	15:36:38	6	4	451	3	3	58
5_4	11	4	15:36:38	4	2	589	4	12	59
5_4	11	4	15:36:38	4	3	303	10	11	60
5_4	11	4	15:36:38	1	2	241	9	15	61
5_4	11	4	15:36:38	3	1	207	14	16	62
5_4	11	4	15:36:38	0	0	565	9	8	63
5_4	11	4	15:36:38	6	1	739	1	1	64
5_4	11	4	15:36:38	2	0	776	3	10	65
5_4	11	4	15:36:38	6	1	5	18	18	66
5_4	11	4	15:36:38	1	1	372	1	18	67
5_4	11	4	15:36:38	6	2	1142	12	12	68
5_4	11	4	15:36:38	0	1	553	17	13	69
5_4	11	4	15:36:38	6	1	447	15	15	70
5_4	11	4	15:36:38	6	1	141	14	14	71
5_4	11	4	15:36:38	1	1	916	5	17	72
5_4	15	4	16:31:12	0	1	4609	12	2	1
5_4	15	4	16:31:12	2	1	414	18	4	2
5_4	15	4	16:31:12	4	0	2480	16	1	3
5_4	15	4	16:31:12	1	0	1197	7	1	4
5_4	15	4	16:31:12	0	3	2519	17	13	5
5_4	15	4	16:31:12	6	3	756	16	16	6
5_4	15	4	16:31:12	0	2	1324	5	2	7
5_4	15	4	16:31:12	2	1	1199	3	10	8
5_4	15	4	16:31:12	1	1	341	2	14	9
5_4	15	4	16:31:12	6	4	5805	4	4	10
5_4	15	4	16:31:12	1	1	1546	4	11	11
5_4	15	4	16:31:12	6	0	8002	17	17	12
5_4	15	4	16:31:12	3	3	2002	6	9	13
5_4	15	4	16:31:12	6	0	567	14	14	14
5_4	15	4	16:31:12	0	0	237	16	3	15
5_4	15	4	16:31:12	0	2	1237	13	7	16
5_4	15	4	16:31:12	0	1	675	1	3	17
5_4	15	4	16:31:12	0	0	83	3	12	18
5_4	15	4	16:31:12	6	2	355	3	3	19
5_4	15	4	16:31:12	4	2	900	4	12	20
5_4	15	4	16:31:12	4	0	455	14	5	21
5_4	15	4	16:31:12	1	2	1170	8	16	22
5_4	15	4	16:31:12	6	3	2424	5	5	23
5_4	15	4	16:31:12	1	0	1268	9	10	24
5_4	15	4	16:31:12	6	4	1127	7	7	25
5_4	15	4	16:31:12	2	1	406	17	9	26
5_4	15	4	16:31:12	6	5	1011	12	12	27
5_4	15	4	16:31:12	6	5	631	11	11	28
5_4	15	4	16:31:12	6	2	2208	9	9	29
5_4	15	4	16:31:12	1	0	467	5	17	30
5_4	15	4	16:31:12	4	0	874	10	11	31
5_4	15	4	16:31:12	6	5	1025	10	10	32
5_4	15	4	16:31:12	3	0	419	2	18	33
5_4	15	4	16:31:12	2	0	999	6	3	34
5_4	15	4	16:31:12	6	5	1382	2	2	35
5_4	15	4	16:31:12	1	2	1689	3	14	36
5_4	15	4	16:31:12	2	2	2340	15	17	37
5_4	15	4	16:31:12	3	2	3827	12	15	38
5_4	15	4	16:31:12	6	2	4648	18	18	39
5_4	15	4	16:31:12	1	2	1815	1	18	40
5_4	15	4	16:31:12	0	3	1744	13	7	41
5_4	15	4	16:31:12	4	0	1409	11	7	42
5_4	15	4	16:31:12	1	0	646	2	16	43
5_4	15	4	16:31:12	1	0	162	9	15	44
5_4	15	4	16:31:12	4	1	417	15	4	45
5_4	15	4	16:31:12	3	3	3164	14	16	46
5_4	15	4	16:31:12	6	0	549	6	6	47
5_4	15	4	16:31:12	2	0	151	5	18	48
5_4	15	4	16:31:12	0	2	6545	18	8	49
5_4	15	4	16:31:12	6	2	1349	1	1	50
5_4	15	4	16:31:12	2	2	550	10	6	51
5_4	15	4	16:31:12	3	3	1879	1	13	52
5_4	15	4	16:31:12	2	0	708	13	2	53
5_4	15	4	16:31:12	1	2	4727	8	6	54
5_4	15	4	16:31:12	3	2	2795	7	5	55
5_4	15	4	16:31:12	0	0	457	7	17	56
5_4	15	4	16:31:12	6	0	212	13	13	57
5_4	15	4	16:31:12	2	0	91	18	14	58
5_4	15	4	16:31:12	0	1	336	15	5	59
5_4	15	4	16:31:12	2	2	565	12	11	60
5_4	15	4	16:31:12	6	5	1505	15	15	61
5_4	15	4	16:31:12	0	0	899	11	15	62
5_4	15	4	16:31:12	0	2	3943	9	8	63
5_4	15	4	16:31:12	1	2	802	4	1	64
5_4	15	4	16:31:12	3	1	1249	8	10	65
5_4	15	4	16:31:12	3	2	613	17	6	66
5_4	15	4	16:31:12	2	2	1153	16	13	67
5_4	15	4	16:31:12	1	2	32	6	12	68
5_4	15	4	16:31:12	0	0	16	14	4	69
5_4	15	4	16:31:12	2	0	85	11	8	70
5_4	15	4	16:31:12	1	0	325	10	9	71
5_4	15	4	16:31:12	6	4	3424	8	8	72
5_4	20	4	17:19:27	6	3	2227	2	2	1
5_4	20	4	17:19:27	1	0	208	9	15	2
5_4	20	4	17:19:27	3	0	393	1	13	3
5_4	20	4	17:19:27	6	3	257	5	5	4
5_4	20	4	17:19:27	0	0	324	13	7	5
5_4	20	4	17:19:27	2	0	67	13	2	6
5_4	20	4	17:19:27	0	0	2	13	7	7
5_4	20	4	17:19:27	0	2	247	9	8	8
5_4	20	4	17:19:27	6	2	85	11	11	9
5_4	20	4	17:19:27	1	0	341	1	18	10
5_4	20	4	17:19:27	6	3	302	17	17	11
5_4	20	4	17:19:27	4	0	246	16	1	12
5_4	20	4	17:19:27	0	0	517	16	3	13
5_4	20	4	17:19:27	1	0	422	8	6	14
5_4	20	4	17:19:27	0	0	62	7	17	15
5_4	20	4	17:19:27	6	2	291	9	9	16
5_4	20	4	17:19:27	0	0	160	15	5	17
5_4	20	4	17:19:27	2	0	256	16	13	18
5_4	20	4	17:19:27	0	0	99	3	12	19
5_4	20	4	17:19:27	0	0	56	5	2	20
5_4	20	4	17:19:27	2	0	1957	5	18	21
5_4	20	4	17:19:27	3	0	180	7	5	22
5_4	20	4	17:19:27	0	0	231	14	4	23
5_4	20	4	17:19:27	6	2	513	6	6	24
5_4	20	4	17:19:27	2	0	225	17	9	25
5_4	20	4	17:19:27	6	2	162	3	3	26
5_4	20	4	17:19:27	1	0	103	10	9	27
5_4	20	4	17:19:27	0	0	170	11	15	28
5_4	20	4	17:19:27	6	2	319	4	4	29
5_4	20	4	17:19:27	6	3	118	12	12	30
5_4	20	4	17:19:27	2	0	84	10	6	31
5_4	20	4	17:19:27	0	0	152	12	2	32
5_4	20	4	17:19:27	1	0	4	4	1	33
5_4	20	4	17:19:27	4	0	495	11	7	34
5_4	20	4	17:19:27	0	0	403	18	8	35
5_4	20	4	17:19:27	1	0	96	8	16	36
5_4	20	4	17:19:27	2	0	215	15	17	37
5_4	20	4	17:19:27	6	1	2387	1	1	38
5_4	20	4	17:19:27	6	2	7	7	7	39
5_4	20	4	17:19:27	1	0	17	4	11	40
5_4	20	4	17:19:27	6	2	1671	16	16	41
5_4	20	4	17:19:27	3	0	38	2	18	42
5_4	20	4	17:19:27	2	0	47	18	14	43
5_4	20	4	17:19:27	4	0	376	14	5	44
5_4	20	4	17:19:27	2	0	3877	3	10	45
5_4	20	4	17:19:27	2	0	102	12	11	46
5_4	20	4	17:19:27	6	0	331	14	14	47
5_4	20	4	17:19:27	2	0	273	11	8	48
5_4	20	4	17:19:27	1	0	267	2	14	49
5_4	20	4	17:19:27	4	0	166	10	11	50
5_4	20	4	17:19:27	1	0	2	6	12	51
5_4	20	4	17:19:27	3	0	83	6	9	52
5_4	20	4	17:19:27	3	0	2674	8	10	53
5_4	20	4	17:19:27	6	3	1207	10	10	54
5_4	20	4	17:19:27	6	2	373	13	13	55
5_4	20	4	17:19:27	3	0	17	12	15	56
5_4	20	4	17:19:27	1	0	70	7	1	57
5_4	20	4	17:19:27	2	0	129	6	3	58
5_4	20	4	17:19:27	1	0	119	5	17	59
5_4	20	4	17:19:27	6	2	376	18	18	60
5_4	20	4	17:19:27	1	0	162	9	10	61
5_4	20	4	17:19:27	1	0	115	2	16	62
5_4	20	4	17:19:27	3	0	276	14	16	63
5_4	20	4	17:19:27	0	0	6	1	3	64
5_4	20	4	17:19:27	4	0	196	15	4	65
5_4	20	4	17:19:27	3	0	5	17	6	66
5_4	20	4	17:19:27	0	0	164	17	13	67
5_4	20	4	17:19:27	4	0	115	4	12	68
5_4	20	4	17:19:27	2	0	1	18	4	69
5_4	20	4	17:19:27	6	2	354	8	8	70
5_4	20	4	17:19:27	6	2	243	15	15	71
5_4	20	4	17:19:27	1	0	91	3	14	72
5_4	27	4	15:13:58	6	1	1115	2	2	1
5_4	27	4	15:13:58	4	3	1928	11	7	2
5_4	27	4	15:13:58	0	2	2554	16	3	3
5_4	27	4	15:13:58	6	5	213	10	10	4
5_4	27	4	15:13:58	6	1	116	3	3	5
5_4	27	4	15:13:58	3	0	467	1	13	6
5_4	27	4	15:13:58	1	2	71	8	16	7
5_4	27	4	15:13:58	6	4	272	1	1	8
5_4	27	4	15:13:58	6	6	1007	15	15	9
5_4	27	4	15:13:58	1	2	340	6	12	10
5_4	27	4	15:13:58	0	0	272	9	8	11
5_4	27	4	15:13:58	4	0	272	15	4	12
5_4	27	4	15:13:58	1	1	240	5	17	13
5_4	27	4	15:13:58	0	0	150	17	13	14
5_4	27	4	15:13:58	1	3	154	2	16	15
5_4	27	4	15:13:58	1	0	291	1	18	16
5_4	27	4	15:13:58	0	0	158	11	15	17
5_4	27	4	15:13:58	2	0	408	11	8	18
5_4	27	4	15:13:58	2	0	262	12	11	19
5_4	27	4	15:13:58	0	0	128	7	17	20
5_4	27	4	15:13:58	0	0	328	5	2	21
5_4	27	4	15:13:58	2	0	261	6	3	22
5_4	27	4	15:13:58	4	0	160	4	12	23
5_4	27	4	15:13:58	1	1	186	2	14	24
5_4	27	4	15:13:58	1	0	115	4	1	25
5_4	27	4	15:13:58	3	0	102	12	15	26
5_4	27	4	15:13:58	4	2	49	10	11	27
5_4	27	4	15:13:58	3	4	24	2	18	28
5_4	27	4	15:13:58	6	6	35	13	13	29
5_4	27	4	15:13:58	2	0	7	18	14	30
5_4	27	4	15:13:58	1	2	67	9	10	31
5_4	27	4	15:13:58	1	0	470	8	6	32
5_4	27	4	15:13:58	6	1	420	14	14	33
5_4	27	4	15:13:58	6	6	510	18	18	34
5_4	27	4	15:13:58	3	2	318	17	6	35
5_4	27	4	15:13:58	0	0	38	1	3	36
5_4	27	4	15:13:58	6	3	199	8	8	37
5_4	27	4	15:13:58	1	5	3	7	1	38
5_4	27	4	15:13:58	2	0	214	13	2	39
5_4	27	4	15:13:58	2	0	36	15	17	40
5_4	27	4	15:13:58	4	2	101	14	5	41
5_4	27	4	15:13:58	0	0	54	14	4	42
5_4	27	4	15:13:58	2	2	362	5	18	43
5_4	27	4	15:13:58	0	3	286	13	7	44
5_4	27	4	15:13:58	6	0	83	9	9	45
5_4	27	4	15:13:58	2	1	326	18	4	46
5_4	27	4	15:13:58	2	4	355	10	6	47
5_4	27	4	15:13:58	0	2	36	12	2	48
5_4	27	4	15:13:58	1	2	293	10	9	49
5_4	27	4	15:13:58	2	2	311	17	9	50
5_4	27	4	15:13:58	6	6	176	12	12	51
5_4	27	4	15:13:58	0	0	5	15	5	52
5_4	27	4	15:13:58	6	2	500	16	16	53
5_4	27	4	15:13:58	1	2	643	3	14	54
5_4	27	4	15:13:58	3	2	496	8	10	55
5_4	27	4	15:13:58	0	2	373	18	8	56
5_4	27	4	15:13:58	2	2	242	3	10	57
5_4	27	4	15:13:58	4	5	439	16	1	58
5_4	27	4	15:13:58	0	0	150	3	12	59
5_4	27	4	15:13:58	3	3	351	14	16	60
5_4	27	4	15:13:58	3	2	448	7	5	61
5_4	27	4	15:13:58	6	2	917	6	6	62
5_4	27	4	15:13:58	6	4	594	7	7	63
5_4	27	4	15:13:58	2	0	82	16	13	64
5_4	27	4	15:13:58	0	0	243	13	7	65
5_4	27	4	15:13:58	6	1	212	11	11	66
5_4	27	4	15:13:58	6	0	17	17	17	67
5_4	27	4	15:13:58	6	2	212	4	4	68
5_4	27	4	15:13:58	3	0	34	6	9	69
5_4	27	4	15:13:58	6	6	292	5	5	70
5_4	27	4	15:13:58	1	0	368	9	15	71
5_4	27	4	15:13:58	1	1	221	4	11	72
5_4	32	4	16:02:07	3	0	7788	14	16	1
5_4	32	4	16:02:07	2	0	318	5	18	2
5_4	32	4	16:02:07	3	0	825	8	10	3
5_4	32	4	16:02:07	1	0	398	2	14	4
5_4	32	4	16:02:07	2	0	406	17	9	5
5_4	32	4	16:02:07	1	0	12	3	14	6
5_4	32	4	16:02:07	4	0	89	11	7	7
5_4	32	4	16:02:07	0	2	4125	16	3	8
5_4	32	4	16:02:07	6	2	5	8	8	9
5_4	32	4	16:02:07	4	0	249	16	1	10
5_4	32	4	16:02:07	2	0	111	16	13	11
5_4	32	4	16:02:07	2	0	1765	10	6	12
5_4	32	4	16:02:07	6	2	1506	9	9	13
5_4	32	4	16:02:07	0	0	208	1	3	14
5_4	32	4	16:02:07	1	0	336	5	17	15
5_4	32	4	16:02:07	1	2	997	8	16	16
5_4	32	4	16:02:07	0	0	115	17	13	17
5_4	32	4	16:02:07	6	3	1028	1	1	18
5_4	32	4	16:02:07	6	0	1247	14	14	19
5_4	32	4	16:02:07	0	0	1555	12	2	20
5_4	32	4	16:02:07	4	0	376	15	4	21
5_4	32	4	16:02:07	3	0	99	17	6	22
5_4	32	4	16:02:07	4	0	569	14	5	23
5_4	32	4	16:02:07	6	0	151	16	16	24
5_4	32	4	16:02:07	1	0	288	4	1	25
5_4	32	4	16:02:07	6	0	252	2	2	26
5_4	32	4	16:02:07	0	0	66	13	7	27
5_4	32	4	16:02:07	2	0	275	15	17	28
5_4	32	4	16:02:07	2	0	254	18	14	29
5_4	32	4	16:02:07	6	0	1890	15	15	30
5_4	32	4	16:02:07	0	0	198	18	8	31
5_4	32	4	16:02:07	0	0	87	11	15	32
5_4	32	4	16:02:07	0	0	183	7	17	33
5_4	32	4	16:02:07	4	2	1528	4	12	34
5_4	32	4	16:02:07	0	0	313	13	7	35
5_4	32	4	16:02:07	3	0	1361	1	13	36
5_4	32	4	16:02:07	0	0	1033	3	12	37
5_4	32	4	16:02:07	1	0	558	1	18	38
5_4	32	4	16:02:07	6	2	438	4	4	39
5_4	32	4	16:02:07	2	0	300	13	2	40
5_4	32	4	16:02:07	6	2	576	5	5	41
5_4	32	4	16:02:07	6	3	1204	11	11	42
5_4	32	4	16:02:07	2	0	95	3	10	43
5_4	32	4	16:02:07	0	0	69	5	2	44
5_4	32	4	16:02:07	1	2	248	9	15	45
5_4	32	4	16:02:07	6	2	214	12	12	46
5_4	32	4	16:02:07	3	0	388	7	5	47
5_4	32	4	16:02:07	6	3	1190	6	6	48
5_4	32	4	16:02:07	0	0	14	15	5	49
5_4	32	4	16:02:07	6	4	482	18	18	50
5_4	32	4	16:02:07	1	0	303	6	12	51
5_4	32	4	16:02:07	1	0	786	2	16	52
5_4	32	4	16:02:07	2	0	36	6	3	53
5_4	32	4	16:02:07	1	0	182	10	9	54
5_4	32	4	16:02:07	3	0	112	6	9	55
5_4	32	4	16:02:07	6	0	242	13	13	56
5_4	32	4	16:02:07	1	0	337	7	1	57
5_4	32	4	16:02:07	6	0	198	17	17	58
5_4	32	4	16:02:07	6	4	1239	7	7	59
5_4	32	4	16:02:07	1	0	227	4	11	60
5_4	32	4	16:02:07	6	3	1560	10	10	61
5_4	32	4	16:02:07	1	0	102	9	10	62
5_4	32	4	16:02:07	3	0	3392	2	18	63
5_4	32	4	16:02:07	2	0	82	12	11	64
5_4	32	4	16:02:07	2	0	1011	18	4	65
5_4	32	4	16:02:07	0	0	249	9	8	66
5_4	32	4	16:02:07	3	0	6	12	15	67
5_4	32	4	16:02:07	0	0	55	14	4	68
5_4	32	4	16:02:07	2	0	292	11	8	69
5_4	32	4	16:02:07	1	0	111	8	6	70
5_4	32	4	16:02:07	6	0	385	3	3	71
5_4	32	4	16:02:07	4	0	100	10	11	72
5_4	35	4	16:52:01	2	2	892	15	17	1
5_4	35	4	16:52:01	2	3	94	6	3	2
5_4	35	4	16:52:01	2	4	117	16	13	3
5_4	35	4	16:52:01	2	3	1269	3	10	4
5_4	35	4	16:52:01	4	2	70	14	5	5
5_4	35	4	16:52:01	6	3	638	3	3	6
5_4	35	4	16:52:01	0	4	294	13	7	7
5_4	35	4	16:52:01	6	1	930	12	12	8
5_4	35	4	16:52:01	6	2	57	8	8	9
5_4	35	4	16:52:01	1	3	150	6	12	10
5_4	35	4	16:52:01	4	5	222	16	1	11
5_4	35	4	16:52:01	6	4	112	10	10	12
5_4	35	4	16:52:01	0	6	19	11	15	13
5_4	35	4	16:52:01	0	4	6071	5	2	14
5_4	35	4	16:52:01	0	4	2503	17	13	15
5_4	35	4	16:52:01	1	4	3757	7	1	16
5_4	35	4	16:52:01	1	4	3512	8	6	17
5_4	35	4	16:52:01	1	4	1587	9	10	18
5_4	35	4	16:52:01	3	3	323	17	6	19
5_4	35	4	16:52:01	2	2	274	11	8	20
5_4	35	4	16:52:01	6	4	899	13	13	21
5_4	35	4	16:52:01	0	2	5222	1	3	22
5_4	35	4	16:52:01	1	2	1615	4	11	23
5_4	35	4	16:52:01	6	3	130	11	11	24
5_4	35	4	16:52:01	1	1	185	3	14	25
5_4	35	4	16:52:01	0	1	259	3	12	26
5_4	35	4	16:52:01	4	2	4	4	12	27
5_4	35	4	16:52:01	3	3	150	2	18	28
5_4	35	4	16:52:01	1	1	315	2	14	29
5_4	35	4	16:52:01	3	4	1073	12	15	30
5_4	35	4	16:52:01	6	6	81	17	17	31
5_4	35	4	16:52:01	2	3	80	12	11	32
5_4	35	4	16:52:01	2	2	144	13	2	33
5_4	35	4	16:52:01	6	4	98	7	7	34
5_4	35	4	16:52:01	1	1	279	5	17	35
5_4	35	4	16:52:01	3	3	249	6	9	36
5_4	35	4	16:52:01	6	3	359	5	5	37
5_4	35	4	16:52:01	1	3	1653	2	16	38
5_4	35	4	16:52:01	0	2	183	18	8	39
5_4	35	4	16:52:01	0	1	1427	9	8	40
5_4	35	4	16:52:01	2	2	251	18	14	41
5_4	35	4	16:52:01	1	1	432	4	1	42
5_4	35	4	16:52:01	0	4	82	14	4	43
5_4	35	4	16:52:01	6	3	86	16	16	44
5_4	35	4	16:52:01	3	3	11	14	16	45
5_4	35	4	16:52:01	4	3	640	15	4	46
5_4	35	4	16:52:01	2	5	1017	5	18	47
5_4	35	4	16:52:01	0	1	210	7	17	48
5_4	35	4	16:52:01	6	2	352	4	4	49
5_4	35	4	16:52:01	6	3	80	1	1	50
5_4	35	4	16:52:01	2	4	192	17	9	51
5_4	35	4	16:52:01	2	5	144	10	6	52
5_4	35	4	16:52:01	1	5	67	1	18	53
5_4	35	4	16:52:01	0	2	86	13	7	54
5_4	35	4	16:52:01	4	4	53	10	11	55
5_4	35	4	16:52:01	6	3	7	6	6	56
5_4	35	4	16:52:01	3	1	98	7	5	57
5_4	35	4	16:52:01	6	3	3104	14	14	58
5_4	35	4	16:52:01	1	3	39	9	15	59
5_4	35	4	16:52:01	2	1	24	18	4	60
5_4	35	4	16:52:01	6	5	2	9	9	61
5_4	35	4	16:52:01	3	3	0	1	13	62
5_4	35	4	16:52:01	6	4	194	2	2	63
5_4	35	4	16:52:01	1	4	1273	8	16	64
5_4	35	4	16:52:01	6	1	110	15	15	65
5_4	35	4	16:52:01	1	2	175	10	9	66
5_4	35	4	16:52:01	0	4	198	15	5	67
5_4	35	4	16:52:01	6	6	1175	18	18	68
5_4	35	4	16:52:01	3	3	193	8	10	69
5_4	35	4	16:52:01	0	2	19	16	3	70
5_4	35	4	16:52:01	0	2	184	12	2	71
5_4	35	4	16:52:01	4	1	1155	11	7	72
5_4	5	4	14:43:57	1	0	4220	6	12	1
5_4	5	4	14:43:57	0	0	2305	9	8	2
5_4	5	4	14:43:57	1	0	1070	9	10	3
5_4	5	4	14:43:57	6	3	1720	15	15	4
5_4	5	4	14:43:57	1	0	68	4	11	5
5_4	5	4	14:43:57	0	0	1464	17	13	6
5_4	5	4	14:43:57	1	0	1215	4	1	7
5_4	5	4	14:43:57	3	0	179	7	5	8
5_4	5	4	14:43:57	4	0	408	11	7	9
5_4	5	4	14:43:57	2	0	774	13	2	10
5_4	5	4	14:43:57	6	4	1234	10	10	11
5_4	5	4	14:43:57	6	4	271	11	11	12
5_4	5	4	14:43:57	0	0	321	7	17	13
5_4	5	4	14:43:57	6	3	2543	6	6	14
5_4	5	4	14:43:57	0	0	300	13	7	15
5_4	5	4	14:43:57	1	0	67	2	14	16
5_4	5	4	14:43:57	6	0	295	1	1	17
5_4	5	4	14:43:57	2	0	978	16	13	18
5_4	5	4	14:43:57	0	0	343	13	7	19
5_4	5	4	14:43:57	4	1	38	16	1	20
5_4	5	4	14:43:57	2	0	1057	18	14	21
5_4	5	4	14:43:57	2	0	1396	11	8	22
5_4	5	4	14:43:57	2	0	276	18	4	23
5_4	5	4	14:43:57	0	0	841	12	2	24
5_4	5	4	14:43:57	2	0	312	10	6	25
5_4	5	4	14:43:57	1	0	1948	3	14	26
5_4	5	4	14:43:57	4	0	1042	14	5	27
5_4	5	4	14:43:57	1	0	218	1	18	28
5_4	5	4	14:43:57	0	0	440	18	8	29
5_4	5	4	14:43:57	6	4	1751	5	5	30
5_4	5	4	14:43:57	3	0	1143	17	6	31
5_4	5	4	14:43:57	0	0	340	3	12	32
5_4	5	4	14:43:57	6	4	1322	7	7	33
5_4	5	4	14:43:57	0	0	2655	5	2	34
5_4	5	4	14:43:57	3	0	503	2	18	35
5_4	5	4	14:43:57	1	0	1248	10	9	36
5_4	5	4	14:43:57	4	0	540	4	12	37
5_4	5	4	14:43:57	3	0	606	14	16	38
5_4	5	4	14:43:57	2	0	1721	5	18	39
5_4	5	4	14:43:57	2	0	966	12	11	40
5_4	5	4	14:43:57	1	0	19	8	16	41
5_4	5	4	14:43:57	6	1	996	14	14	42
5_4	5	4	14:43:57	6	0	2851	2	2	43
5_4	5	4	14:43:57	2	0	35	15	17	44
5_4	5	4	14:43:57	6	2	2266	12	12	45
5_4	5	4	14:43:57	6	3	1136	4	4	46
5_4	5	4	14:43:57	0	0	1257	11	15	47
5_4	5	4	14:43:57	6	4	1123	17	17	48
5_4	5	4	14:43:57	4	0	834	10	11	49
5_4	5	4	14:43:57	6	4	912	18	18	50
5_4	5	4	14:43:57	6	3	976	3	3	51
5_4	5	4	14:43:57	1	0	552	7	1	52
5_4	5	4	14:43:57	2	0	1383	17	9	53
5_4	5	4	14:43:57	0	0	1902	1	3	54
5_4	5	4	14:43:57	6	2	2008	9	9	55
5_4	5	4	14:43:57	0	0	24	16	3	56
5_4	5	4	14:43:57	3	0	244	8	10	57
5_4	5	4	14:43:57	2	0	889	6	3	58
5_4	5	4	14:43:57	6	1	181	13	13	59
5_4	5	4	14:43:57	3	0	312	1	13	60
5_4	5	4	14:43:57	2	0	368	3	10	61
5_4	5	4	14:43:57	1	0	428	2	16	62
5_4	5	4	14:43:57	4	0	230	15	4	63
5_4	5	4	14:43:57	0	0	239	14	4	64
5_4	5	4	14:43:57	6	4	1006	8	8	65
5_4	5	4	14:43:57	1	0	6	9	15	66
5_4	5	4	14:43:57	0	0	461	15	5	67
5_4	5	4	14:43:57	3	0	1616	6	9	68
5_4	5	4	14:43:57	1	0	418	5	17	69
5_4	5	4	14:43:57	6	0	83	16	16	70
5_4	5	4	14:43:57	1	0	116	8	6	71
5_4	5	4	14:43:57	3	0	1351	12	15	72
5_1	14	1	15:43:24	6	3	2997	3	3	1
5_1	14	1	15:43:24	1	4	725	8	16	2
5_1	14	1	15:43:24	6	6	36	16	16	3
5_1	14	1	15:43:24	3	4	853	8	10	4
5_1	14	1	15:43:24	1	2	1453	5	17	5
5_1	14	1	15:43:24	2	0	1617	13	2	6
5_1	14	1	15:43:24	6	4	2499	4	4	7
5_1	14	1	15:43:24	0	4	1091	11	15	8
5_1	14	1	15:43:24	6	2	615	12	12	9
5_1	14	1	15:43:24	6	4	356	7	7	10
5_1	14	1	15:43:24	3	0	149	6	9	11
5_1	14	1	15:43:24	1	2	265	7	1	12
5_1	14	1	15:43:24	6	3	163	9	9	13
5_1	14	1	15:43:24	2	4	560	18	14	14
5_1	14	1	15:43:24	6	6	266	11	11	15
5_1	14	1	15:43:24	3	5	308	2	18	16
5_1	14	1	15:43:24	1	3	646	6	12	17
5_1	14	1	15:43:24	2	6	737	12	11	18
5_1	14	1	15:43:24	0	5	472	7	17	19
5_1	14	1	15:43:24	6	6	161	1	1	20
5_1	14	1	15:43:24	6	4	319	8	8	21
5_1	14	1	15:43:24	6	3	88	18	18	22
5_1	14	1	15:43:24	6	6	567	14	14	23
5_1	14	1	15:43:24	0	2	358	12	2	24
5_1	14	1	15:43:24	2	6	108	5	18	25
5_1	14	1	15:43:24	2	6	54	16	13	26
5_1	14	1	15:43:24	0	6	3124	14	4	27
5_1	14	1	15:43:24	0	5	261	9	8	28
5_1	14	1	15:43:24	2	6	317	18	4	29
5_1	14	1	15:43:24	1	6	2687	3	14	30
5_1	14	1	15:43:24	0	5	2593	13	7	31
5_1	14	1	15:43:24	6	6	374	13	13	32
5_1	14	1	15:43:24	1	4	4248	9	15	33
5_1	14	1	15:43:24	2	4	195	6	3	34
5_1	14	1	15:43:24	1	4	130	2	16	35
5_1	14	1	15:43:24	6	5	721	6	6	36
5_1	14	1	15:43:24	2	1	110	15	17	37
5_1	14	1	15:43:24	2	5	318	3	10	38
5_1	14	1	15:43:24	0	6	1528	3	12	39
5_1	14	1	15:43:24	0	0	1684	15	5	40
5_1	14	1	15:43:24	1	2	1664	8	6	41
5_1	14	1	15:43:24	1	6	1182	9	10	42
5_1	14	1	15:43:24	4	0	319	16	1	43
5_1	14	1	15:43:24	0	0	40	18	8	44
5_1	14	1	15:43:24	3	1	2719	17	6	45
5_1	14	1	15:43:24	6	0	225	15	15	46
5_1	14	1	15:43:24	1	6	533	4	11	47
5_1	14	1	15:43:24	6	0	641	10	10	48
5_1	14	1	15:43:24	2	0	223	10	6	49
5_1	14	1	15:43:24	0	0	1842	1	3	50
5_1	14	1	15:43:24	3	0	78	1	13	51
5_1	14	1	15:43:24	0	5	2756	13	7	52
5_1	14	1	15:43:24	1	5	10737	1	18	53
5_1	14	1	15:43:24	4	6	2052	14	5	54
5_1	14	1	15:43:24	0	2	229	16	3	55
5_1	14	1	15:43:24	4	5	152	10	11	56
5_1	14	1	15:43:24	4	4	6113	11	7	57
5_1	14	1	15:43:24	0	0	4912	17	13	58
5_1	14	1	15:43:24	2	5	513	11	8	59
5_1	14	1	15:43:24	1	3	3266	4	1	60
5_1	14	1	15:43:24	6	6	7862	5	5	61
5_1	14	1	15:43:24	3	5	3348	14	16	62
5_1	14	1	15:43:24	0	5	81	5	2	63
5_1	14	1	15:43:24	6	0	2209	2	2	64
5_1	14	1	15:43:24	1	5	3506	2	14	65
5_1	14	1	15:43:24	2	4	2936	17	9	66
5_1	14	1	15:43:24	3	5	222	7	5	67
5_1	14	1	15:43:24	4	4	1537	4	12	68
5_1	14	1	15:43:24	1	6	688	10	9	69
5_1	14	1	15:43:24	4	5	1990	15	4	70
5_1	14	1	15:43:24	3	0	696	12	15	71
5_1	14	1	15:43:24	6	0	724	17	17	72
5_1	18	1	16:11:16	6	2	3108	18	18	1
5_1	18	1	16:11:16	2	6	2113	5	18	2
5_1	18	1	16:11:16	1	4	3656	9	15	3
5_1	18	1	16:11:16	0	0	1470	15	5	4
5_1	18	1	16:11:16	1	3	3627	7	1	5
5_1	18	1	16:11:16	4	2	1929	14	5	6
5_1	18	1	16:11:16	6	6	1684	4	4	7
5_1	18	1	16:11:16	3	2	1232	6	9	8
5_1	18	1	16:11:16	0	0	937	16	3	9
5_1	18	1	16:11:16	6	6	650	12	12	10
5_1	18	1	16:11:16	2	6	733	18	14	11
5_1	18	1	16:11:16	6	6	1202	1	1	12
5_1	18	1	16:11:16	2	0	583	12	11	13
5_1	18	1	16:11:16	2	3	766	6	3	14
5_1	18	1	16:11:16	2	4	1597	11	8	15
5_1	18	1	16:11:16	0	0	2259	14	4	16
5_1	18	1	16:11:16	6	6	164	8	8	17
5_1	18	1	16:11:16	6	6	50	9	9	18
5_1	18	1	16:11:16	6	6	320	3	3	19
5_1	18	1	16:11:16	4	0	1045	10	11	20
5_1	18	1	16:11:16	0	0	152	5	2	21
5_1	18	1	16:11:16	1	6	305	2	16	22
5_1	18	1	16:11:16	6	2	1572	16	16	23
5_1	18	1	16:11:16	0	2	806	12	2	24
5_1	18	1	16:11:16	1	2	234	8	16	25
5_1	18	1	16:11:16	2	3	707	18	4	26
5_1	18	1	16:11:16	2	1	549	17	9	27
5_1	18	1	16:11:16	3	4	792	14	16	28
5_1	18	1	16:11:16	1	0	1486	5	17	29
5_1	18	1	16:11:16	1	0	146	4	11	30
5_1	18	1	16:11:16	2	3	629	10	6	31
5_1	18	1	16:11:16	6	6	838	2	2	32
5_1	18	1	16:11:16	0	2	792	17	13	33
5_1	18	1	16:11:16	2	3	654	15	17	34
5_1	18	1	16:11:16	0	3	1171	9	8	35
5_1	18	1	16:11:16	1	2	1005	9	10	36
5_1	18	1	16:11:16	6	5	355	14	14	37
5_1	18	1	16:11:16	6	6	611	7	7	38
5_1	18	1	16:11:16	0	4	985	1	3	39
5_1	18	1	16:11:16	1	2	659	3	14	40
5_1	18	1	16:11:16	0	1	199	7	17	41
5_1	18	1	16:11:16	0	4	632	18	8	42
5_1	18	1	16:11:16	3	4	592	8	10	43
5_1	18	1	16:11:16	3	2	80	17	6	44
5_1	18	1	16:11:16	4	1	302	15	4	45
5_1	18	1	16:11:16	6	6	80	6	6	46
5_1	18	1	16:11:16	3	3	1566	7	5	47
5_1	18	1	16:11:16	2	4	228	13	2	48
5_1	18	1	16:11:16	0	6	1302	11	15	49
5_1	18	1	16:11:16	1	1	527	10	9	50
5_1	18	1	16:11:16	4	5	247	4	12	51
5_1	18	1	16:11:16	3	3	2	1	13	52
5_1	18	1	16:11:16	3	4	2804	2	18	53
5_1	18	1	16:11:16	2	2	1094	16	13	54
5_1	18	1	16:11:16	6	6	455	15	15	55
5_1	18	1	16:11:16	4	4	2771	11	7	56
5_1	18	1	16:11:16	1	2	114	8	6	57
5_1	18	1	16:11:16	0	2	325	3	12	58
5_1	18	1	16:11:16	2	6	1700	3	10	59
5_1	18	1	16:11:16	6	6	1335	5	5	60
5_1	18	1	16:11:16	0	2	2465	13	7	61
5_1	18	1	16:11:16	6	6	286	10	10	62
5_1	18	1	16:11:16	6	6	117	17	17	63
5_1	18	1	16:11:16	1	4	268	2	14	64
5_1	18	1	16:11:16	6	4	568	13	13	65
5_1	18	1	16:11:16	4	6	358	16	1	66
5_1	18	1	16:11:16	3	2	550	12	15	67
5_1	18	1	16:11:16	1	0	295	6	12	68
5_1	18	1	16:11:16	6	0	900	11	11	69
5_1	18	1	16:11:16	0	0	599	13	7	70
5_1	18	1	16:11:16	1	1	408	1	18	71
5_1	18	1	16:11:16	1	3	1046	4	1	72
5_1	28	1	14:26:04	1	6	4674	9	15	1
5_1	28	1	14:26:04	3	6	707	7	5	2
5_1	28	1	14:26:04	2	3	1939	11	8	3
5_1	28	1	14:26:04	4	2	2374	4	12	4
5_1	28	1	14:26:04	6	4	1033	7	7	5
5_1	28	1	14:26:04	1	6	321	8	6	6
5_1	28	1	14:26:04	0	5	1039	12	2	7
5_1	28	1	14:26:04	4	4	2021	14	5	8
5_1	28	1	14:26:04	1	4	1270	9	10	9
5_1	28	1	14:26:04	6	4	183	9	9	10
5_1	28	1	14:26:04	1	2	1603	3	14	11
5_1	28	1	14:26:04	6	3	3766	1	1	12
5_1	28	1	14:26:04	0	2	1801	5	2	13
5_1	28	1	14:26:04	2	0	438	18	14	14
5_1	28	1	14:26:04	6	1	807	6	6	15
5_1	28	1	14:26:04	1	6	2085	7	1	16
5_1	28	1	14:26:04	6	2	943	17	17	17
5_1	28	1	14:26:04	2	1	1455	6	3	18
5_1	28	1	14:26:04	6	2	787	15	15	19
5_1	28	1	14:26:04	0	4	1220	1	3	20
5_1	28	1	14:26:04	6	3	2006	14	14	21
5_1	28	1	14:26:04	1	4	690	10	9	22
5_1	28	1	14:26:04	2	3	808	12	11	23
5_1	28	1	14:26:04	0	3	1924	13	7	24
5_1	28	1	14:26:04	1	4	1840	8	16	25
5_1	28	1	14:26:04	0	3	213	9	8	26
5_1	28	1	14:26:04	2	2	691	17	9	27
5_1	28	1	14:26:04	2	1	1981	3	10	28
5_1	28	1	14:26:04	3	3	691	14	16	29
5_1	28	1	14:26:04	1	1	995	4	1	30
5_1	28	1	14:26:04	0	1	176	17	13	31
5_1	28	1	14:26:04	3	1	1111	1	13	32
5_1	28	1	14:26:04	4	0	503	16	1	33
5_1	28	1	14:26:04	0	0	1297	16	3	34
5_1	28	1	14:26:04	6	1	419	13	13	35
5_1	28	1	14:26:04	6	2	1271	11	11	36
5_1	28	1	14:26:04	4	1	650	11	7	37
5_1	28	1	14:26:04	1	0	999	6	12	38
5_1	28	1	14:26:04	3	0	3453	2	18	39
5_1	28	1	14:26:04	4	2	357	15	4	40
5_1	28	1	14:26:04	2	0	373	18	4	41
5_1	28	1	14:26:04	2	4	833	10	6	42
5_1	28	1	14:26:04	1	2	465	4	11	43
5_1	28	1	14:26:04	2	1	948	5	18	44
5_1	28	1	14:26:04	0	3	1364	11	15	45
5_1	28	1	14:26:04	3	2	1343	17	6	46
5_1	28	1	14:26:04	3	4	641	12	15	47
5_1	28	1	14:26:04	0	2	637	13	7	48
5_1	28	1	14:26:04	6	2	118	3	3	49
5_1	28	1	14:26:04	2	3	968	15	17	50
5_1	28	1	14:26:04	6	2	838	18	18	51
5_1	28	1	14:26:04	3	2	293	6	9	52
5_1	28	1	14:26:04	6	1	642	12	12	53
5_1	28	1	14:26:04	1	1	16	2	16	54
5_1	28	1	14:26:04	6	3	1771	2	2	55
5_1	28	1	14:26:04	6	2	38	10	10	56
5_1	28	1	14:26:04	1	0	2280	5	17	57
5_1	28	1	14:26:04	0	0	362	18	8	58
5_1	28	1	14:26:04	6	2	831	4	4	59
5_1	28	1	14:26:04	6	6	789	8	8	60
5_1	28	1	14:26:04	0	6	87	14	4	61
5_1	28	1	14:26:04	6	4	1606	5	5	62
5_1	28	1	14:26:04	1	3	353	1	18	63
5_1	28	1	14:26:04	2	3	1352	13	2	64
5_1	28	1	14:26:04	1	2	856	2	14	65
5_1	28	1	14:26:04	0	3	885	15	5	66
5_1	28	1	14:26:04	4	4	769	10	11	67
5_1	28	1	14:26:04	2	0	792	16	13	68
5_1	28	1	14:26:04	6	0	157	16	16	69
5_1	28	1	14:26:04	0	2	72	7	17	70
5_1	28	1	14:26:04	3	5	513	8	10	71
5_1	28	1	14:26:04	0	1	705	3	12	72
5_1	33	1	15:14:30	2	1	37585	18	14	1
5_1	33	1	15:14:30	1	0	5937	1	18	2
5_1	33	1	15:14:30	0	1	6196	11	15	3
5_1	33	1	15:14:30	6	1	1218	17	17	4
5_1	33	1	15:14:30	1	1	394	4	11	5
5_1	33	1	15:14:30	0	1	3731	7	17	6
5_1	33	1	15:14:30	4	2	1985	10	11	7
5_1	33	1	15:14:30	6	1	416	16	16	8
5_1	33	1	15:14:30	0	1	683	17	13	9
5_1	33	1	15:14:30	1	0	1238	2	14	10
5_1	33	1	15:14:30	0	1	1952	1	3	11
5_1	33	1	15:14:30	1	3	759	4	1	12
5_1	33	1	15:14:30	2	2	1927	17	9	13
5_1	33	1	15:14:30	1	4	961	5	17	14
5_1	33	1	15:14:30	1	3	728	10	9	15
5_1	33	1	15:14:30	2	2	1879	10	6	16
5_1	33	1	15:14:30	6	3	740	3	3	17
5_1	33	1	15:14:30	1	2	647	2	16	18
5_1	33	1	15:14:30	6	4	716	9	9	19
5_1	33	1	15:14:30	2	0	3412	16	13	20
5_1	33	1	15:14:30	1	2	692	7	1	21
5_1	33	1	15:14:30	2	3	1598	12	11	22
5_1	33	1	15:14:30	6	1	1828	14	14	23
5_1	33	1	15:14:30	2	0	692	13	2	24
5_1	33	1	15:14:30	6	0	464	6	6	25
5_1	33	1	15:14:30	6	0	786	7	7	26
5_1	33	1	15:14:30	6	0	547	15	15	27
5_1	33	1	15:14:30	6	3	837	11	11	28
5_1	33	1	15:14:30	0	0	725	9	8	29
5_1	33	1	15:14:30	1	2	658	3	14	30
5_1	33	1	15:14:30	3	0	870	12	15	31
5_1	33	1	15:14:30	6	3	1160	4	4	32
5_1	33	1	15:14:30	2	1	870	3	10	33
5_1	33	1	15:14:30	1	0	248	6	12	34
5_1	33	1	15:14:30	4	2	552	4	12	35
5_1	33	1	15:14:30	6	4	661	10	10	36
5_1	33	1	15:14:30	0	1	447	5	2	37
5_1	33	1	15:14:30	6	2	771	18	18	38
5_1	33	1	15:14:30	2	1	1755	5	18	39
5_1	33	1	15:14:30	0	0	145	15	5	40
5_1	33	1	15:14:30	3	0	275	7	5	41
5_1	33	1	15:14:30	3	0	1370	8	10	42
5_1	33	1	15:14:30	0	2	454	3	12	43
5_1	33	1	15:14:30	1	2	756	9	10	44
5_1	33	1	15:14:30	0	2	675	13	7	45
5_1	33	1	15:14:30	1	1	659	8	6	46
5_1	33	1	15:14:30	2	0	284	18	4	47
5_1	33	1	15:14:30	4	0	212	14	5	48
5_1	33	1	15:14:30	0	1	1313	18	8	49
5_1	33	1	15:14:30	0	2	334	14	4	50
5_1	33	1	15:14:30	3	1	771	2	18	51
5_1	33	1	15:14:30	4	2	536	15	4	52
5_1	33	1	15:14:30	0	1	437	13	7	53
5_1	33	1	15:14:30	3	3	452	6	9	54
5_1	33	1	15:14:30	2	2	1944	11	8	55
5_1	33	1	15:14:30	6	0	31	5	5	56
5_1	33	1	15:14:30	0	3	383	12	2	57
5_1	33	1	15:14:30	0	2	274	16	3	58
5_1	33	1	15:14:30	1	0	32	8	16	59
5_1	33	1	15:14:30	6	2	2213	12	12	60
5_1	33	1	15:14:30	4	2	374	11	7	61
5_1	33	1	15:14:30	2	0	2916	15	17	62
5_1	33	1	15:14:30	6	3	399	1	1	63
5_1	33	1	15:14:30	3	0	1191	1	13	64
5_1	33	1	15:14:30	4	1	1032	16	1	65
5_1	33	1	15:14:30	1	0	548	9	15	66
5_1	33	1	15:14:30	3	0	1980	14	16	67
5_1	33	1	15:14:30	6	2	1723	2	2	68
5_1	33	1	15:14:30	6	3	1113	8	8	69
5_1	33	1	15:14:30	2	4	5232	6	3	70
5_1	33	1	15:14:30	6	3	943	13	13	71
5_1	33	1	15:14:30	3	0	880	17	6	72
5_1	34	4	16:34:35	6	3	2425	10	10	1
5_1	34	4	16:34:35	2	0	799	5	18	2
5_1	34	4	16:34:35	0	0	124	12	2	3
5_1	34	4	16:34:35	6	3	428	9	9	4
5_1	34	4	16:34:35	6	3	437	7	7	5
5_1	34	4	16:34:35	6	2	342	11	11	6
5_1	34	4	16:34:35	1	0	1120	2	16	7
5_1	34	4	16:34:35	1	0	183	5	17	8
5_1	34	4	16:34:35	6	3	321	1	1	9
5_1	34	4	16:34:35	6	0	352	18	18	10
5_1	34	4	16:34:35	1	0	48	8	16	11
5_1	34	4	16:34:35	1	0	471	7	1	12
5_1	34	4	16:34:35	0	0	400	9	8	13
5_1	34	4	16:34:35	3	0	4	1	13	14
5_1	34	4	16:34:35	1	0	1674	4	11	15
5_1	34	4	16:34:35	6	0	271	12	12	16
5_1	34	4	16:34:35	0	0	213	3	12	17
5_1	34	4	16:34:35	4	0	194	16	1	18
5_1	34	4	16:34:35	0	0	402	15	5	19
5_1	34	4	16:34:35	2	0	240	16	13	20
5_1	34	4	16:34:35	0	3	304	17	13	21
5_1	34	4	16:34:35	6	0	499	15	15	22
5_1	34	4	16:34:35	3	0	71	17	6	23
5_1	34	4	16:34:35	3	0	245	12	15	24
5_1	34	4	16:34:35	6	3	1396	6	6	25
5_1	34	4	16:34:35	2	0	392	10	6	26
5_1	34	4	16:34:35	6	0	100	8	8	27
5_1	34	4	16:34:35	3	0	205	8	10	28
5_1	34	4	16:34:35	6	0	163	5	5	29
5_1	34	4	16:34:35	4	0	258	11	7	30
5_1	34	4	16:34:35	1	0	253	6	12	31
5_1	34	4	16:34:35	1	0	34	3	14	32
5_1	34	4	16:34:35	1	0	153	10	9	33
5_1	34	4	16:34:35	3	0	4	14	16	34
5_1	34	4	16:34:35	0	0	390	11	15	35
5_1	34	4	16:34:35	1	0	281	2	14	36
5_1	34	4	16:34:35	1	0	479	9	10	37
5_1	34	4	16:34:35	2	2	8	18	14	38
5_1	34	4	16:34:35	6	0	350	17	17	39
5_1	34	4	16:34:35	6	2	392	14	14	40
5_1	34	4	16:34:35	2	0	22	6	3	41
5_1	34	4	16:34:35	1	0	305	9	15	42
5_1	34	4	16:34:35	6	0	183	4	4	43
5_1	34	4	16:34:35	4	0	37	15	4	44
5_1	34	4	16:34:35	4	0	39	10	11	45
5_1	34	4	16:34:35	4	0	2	4	12	46
5_1	34	4	16:34:35	6	0	456	2	2	47
5_1	34	4	16:34:35	2	0	25	15	17	48
5_1	34	4	16:34:35	0	0	421	18	8	49
5_1	34	4	16:34:35	0	0	575	14	4	50
5_1	34	4	16:34:35	0	0	20	16	3	51
5_1	34	4	16:34:35	0	0	46	5	2	52
5_1	34	4	16:34:35	1	2	278	4	1	53
5_1	34	4	16:34:35	6	0	422	13	13	54
5_1	34	4	16:34:35	2	0	258	3	10	55
5_1	34	4	16:34:35	2	0	76	17	9	56
5_1	34	4	16:34:35	6	3	1300	3	3	57
5_1	34	4	16:34:35	3	0	280	6	9	58
5_1	34	4	16:34:35	2	0	41	11	8	59
5_1	34	4	16:34:35	1	3	96	1	18	60
5_1	34	4	16:34:35	2	2	7	13	2	61
5_1	34	4	16:34:35	0	0	250	13	7	62
5_1	34	4	16:34:35	0	0	78	13	7	63
5_1	34	4	16:34:35	3	3	1758	7	5	64
5_1	34	4	16:34:35	1	0	435	8	6	65
5_1	34	4	16:34:35	3	0	404	2	18	66
5_1	34	4	16:34:35	6	4	882	16	16	67
5_1	34	4	16:34:35	4	0	191	14	5	68
5_1	34	4	16:34:35	2	0	48	18	4	69
5_1	34	4	16:34:35	0	0	151	1	3	70
5_1	34	4	16:34:35	2	0	145	12	11	71
5_1	34	4	16:34:35	0	0	691	7	17	72
5_1	36	1	09:24:13	6	0	2062	15	15	1
5_1	36	1	09:24:13	2	4	3804	10	6	2
5_1	36	1	09:24:13	1	6	1973	7	1	3
5_1	36	1	09:24:13	4	4	9385	14	5	4
5_1	36	1	09:24:13	1	0	5187	6	12	5
5_1	36	1	09:24:13	2	5	5557	18	14	6
5_1	36	1	09:24:13	3	5	6964	12	15	7
5_1	36	1	09:24:13	1	3	1690	2	16	8
5_1	36	1	09:24:13	6	6	1395	14	14	9
5_1	36	1	09:24:13	0	5	4753	15	5	10
5_1	36	1	09:24:13	2	4	4002	5	18	11
5_1	36	1	09:24:13	6	6	250	17	17	12
5_1	36	1	09:24:13	0	2	575	1	3	13
5_1	36	1	09:24:13	2	5	2515	16	13	14
5_1	36	1	09:24:13	1	4	1097	9	15	15
5_1	36	1	09:24:13	6	6	131	11	11	16
5_1	36	1	09:24:13	3	3	976	2	18	17
5_1	36	1	09:24:13	6	6	100	10	10	18
5_1	36	1	09:24:13	6	2	1839	2	2	19
5_1	36	1	09:24:13	1	4	3034	2	14	20
5_1	36	1	09:24:13	1	6	167	4	11	21
5_1	36	1	09:24:13	6	6	1765	1	1	22
5_1	36	1	09:24:13	6	2	401	7	7	23
5_1	36	1	09:24:13	3	6	48	1	13	24
5_1	36	1	09:24:13	1	6	486	5	17	25
5_1	36	1	09:24:13	6	4	1381	3	3	26
5_1	36	1	09:24:13	0	2	840	3	12	27
5_1	36	1	09:24:13	0	1	86	14	4	28
5_1	36	1	09:24:13	6	6	475	16	16	29
5_1	36	1	09:24:13	6	4	785	18	18	30
5_1	36	1	09:24:13	1	1	709	10	9	31
5_1	36	1	09:24:13	3	5	1127	17	6	32
5_1	36	1	09:24:13	3	6	2307	7	5	33
5_1	36	1	09:24:13	4	6	1026	4	12	34
5_1	36	1	09:24:13	1	6	371	9	10	35
5_1	36	1	09:24:13	3	4	271	6	9	36
5_1	36	1	09:24:13	0	2	944	13	7	37
5_1	36	1	09:24:13	2	3	467	13	2	38
5_1	36	1	09:24:13	6	4	499	5	5	39
5_1	36	1	09:24:13	2	6	72	12	11	40
5_1	36	1	09:24:13	6	5	499	9	9	41
5_1	36	1	09:24:13	3	5	2054	8	10	42
5_1	36	1	09:24:13	0	6	862	16	3	43
5_1	36	1	09:24:13	4	4	368	10	11	44
5_1	36	1	09:24:13	1	3	3223	8	16	45
5_1	36	1	09:24:13	6	4	4020	6	6	46
5_1	36	1	09:24:13	2	1	785	15	17	47
5_1	36	1	09:24:13	3	6	418	14	16	48
5_1	36	1	09:24:13	0	2	7	7	17	49
5_1	36	1	09:24:13	0	3	422	5	2	50
5_1	36	1	09:24:13	6	1	928	4	4	51
5_1	36	1	09:24:13	4	2	358	11	7	52
5_1	36	1	09:24:13	0	0	759	11	15	53
5_1	36	1	09:24:13	0	4	2391	18	8	54
5_1	36	1	09:24:13	0	3	3989	13	7	55
5_1	36	1	09:24:13	6	4	398	12	12	56
5_1	36	1	09:24:13	6	6	88	8	8	57
5_1	36	1	09:24:13	6	2	556	13	13	58
5_1	36	1	09:24:13	2	6	404	11	8	59
5_1	36	1	09:24:13	0	3	4276	17	13	60
5_1	36	1	09:24:13	1	5	452	3	14	61
5_1	36	1	09:24:13	4	6	1346	16	1	62
5_1	36	1	09:24:13	1	4	2786	1	18	63
5_1	36	1	09:24:13	2	6	77	3	10	64
5_1	36	1	09:24:13	2	2	249	18	4	65
5_1	36	1	09:24:13	1	3	1158	8	6	66
5_1	36	1	09:24:13	0	4	7926	12	2	67
5_1	36	1	09:24:13	2	6	823	6	3	68
5_1	36	1	09:24:13	4	1	353	15	4	69
5_1	36	1	09:24:13	2	3	162	17	9	70
5_1	36	1	09:24:13	1	6	290	4	1	71
5_1	36	1	09:24:13	0	5	471	9	8	72
5_1	4	1	12:19:50	0	4	4367	11	15	1
5_1	4	1	12:19:50	6	5	2407	5	5	2
5_1	4	1	12:19:50	4	6	1090	15	4	3
5_1	4	1	12:19:50	2	6	198	18	4	4
5_1	4	1	12:19:50	0	0	2248	18	8	5
5_1	4	1	12:19:50	3	0	3859	12	15	6
5_1	4	1	12:19:50	2	6	1775	6	3	7
5_1	4	1	12:19:50	6	6	1984	12	12	8
5_1	4	1	12:19:50	6	6	2063	16	16	9
5_1	4	1	12:19:50	6	4	3449	8	8	10
5_1	4	1	12:19:50	3	6	480	1	13	11
5_1	4	1	12:19:50	3	6	264	6	9	12
5_1	4	1	12:19:50	2	0	644	17	9	13
5_1	4	1	12:19:50	3	6	929	14	16	14
5_1	4	1	12:19:50	6	6	39	7	7	15
5_1	4	1	12:19:50	2	0	888	15	17	16
5_1	4	1	12:19:50	4	0	404	14	5	17
5_1	4	1	12:19:50	0	0	2292	13	7	18
5_1	4	1	12:19:50	0	6	269	9	8	19
5_1	4	1	12:19:50	6	0	1079	13	13	20
5_1	4	1	12:19:50	2	0	437	10	6	21
5_1	4	1	12:19:50	1	2	1542	10	9	22
5_1	4	1	12:19:50	0	0	1517	17	13	23
5_1	4	1	12:19:50	6	3	2067	4	4	24
5_1	4	1	12:19:50	2	2	1266	3	10	25
5_1	4	1	12:19:50	0	0	514	15	5	26
5_1	4	1	12:19:50	1	6	324	6	12	27
5_1	4	1	12:19:50	3	2	553	17	6	28
5_1	4	1	12:19:50	6	0	719	14	14	29
5_1	4	1	12:19:50	4	0	776	4	12	30
5_1	4	1	12:19:50	2	6	1012	5	18	31
5_1	4	1	12:19:50	0	2	6733	13	7	32
5_1	4	1	12:19:50	4	0	456	10	11	33
5_1	4	1	12:19:50	1	0	615	8	16	34
5_1	4	1	12:19:50	0	0	704	12	2	35
5_1	4	1	12:19:50	6	4	1490	18	18	36
5_1	4	1	12:19:50	1	0	4182	2	14	37
5_1	4	1	12:19:50	1	0	243	8	6	38
5_1	4	1	12:19:50	1	6	417	3	14	39
5_1	4	1	12:19:50	2	0	327	18	14	40
5_1	4	1	12:19:50	4	6	342	16	1	41
5_1	4	1	12:19:50	1	0	3303	5	17	42
5_1	4	1	12:19:50	1	4	578	9	15	43
5_1	4	1	12:19:50	3	0	5647	2	18	44
5_1	4	1	12:19:50	0	0	73	5	2	45
5_1	4	1	12:19:50	2	0	1202	13	2	46
5_1	4	1	12:19:50	0	0	463	16	3	47
5_1	4	1	12:19:50	1	2	3489	2	16	48
5_1	4	1	12:19:50	6	4	736	17	17	49
5_1	4	1	12:19:50	0	4	2563	1	3	50
5_1	4	1	12:19:50	6	0	1431	6	6	51
5_1	4	1	12:19:50	3	3	1720	7	5	52
5_1	4	1	12:19:50	0	2	917	7	17	53
5_1	4	1	12:19:50	1	2	2597	9	10	54
5_1	4	1	12:19:50	6	3	1712	10	10	55
5_1	4	1	12:19:50	6	3	2935	3	3	56
5_1	4	1	12:19:50	6	6	6009	11	11	57
5_1	4	1	12:19:50	6	2	2389	9	9	58
5_1	4	1	12:19:50	6	0	1731	2	2	59
5_1	4	1	12:19:50	4	0	1064	11	7	60
5_1	4	1	12:19:50	0	6	2271	14	4	61
5_1	4	1	12:19:50	0	2	582	3	12	62
5_1	4	1	12:19:50	2	0	2210	16	13	63
5_1	4	1	12:19:50	6	4	1380	1	1	64
5_1	4	1	12:19:50	6	2	533	15	15	65
5_1	4	1	12:19:50	2	0	1025	11	8	66
5_1	4	1	12:19:50	2	0	2194	12	11	67
5_1	4	1	12:19:50	1	4	2697	4	11	68
5_1	4	1	12:19:50	1	2	1296	4	1	69
5_1	4	1	12:19:50	3	1	1256	8	10	70
5_1	4	1	12:19:50	1	0	3300	1	18	71
5_1	4	1	12:19:50	1	2	1043	7	1	72
5_1	40	1	10:14:03	1	1	6552	7	1	1
5_1	40	1	10:14:03	6	0	3078	1	1	2
5_1	40	1	10:14:03	1	0	2945	9	15	3
5_1	40	1	10:14:03	0	0	5607	13	7	4
5_1	40	1	10:14:03	1	1	2197	9	10	5
5_1	40	1	10:14:03	6	3	5986	18	18	6
5_1	40	1	10:14:03	1	2	304	8	16	7
5_1	40	1	10:14:03	3	1	339	6	9	8
5_1	40	1	10:14:03	2	0	793	18	14	9
5_1	40	1	10:14:03	6	0	704	12	12	10
5_1	40	1	10:14:03	1	1	2018	10	9	11
5_1	40	1	10:14:03	3	2	3155	7	5	12
5_1	40	1	10:14:03	0	2	765	7	17	13
5_1	40	1	10:14:03	0	0	1363	13	7	14
5_1	40	1	10:14:03	2	1	1301	16	13	15
5_1	40	1	10:14:03	2	6	1336	17	9	16
5_1	40	1	10:14:03	3	6	721	2	18	17
5_1	40	1	10:14:03	2	3	2287	6	3	18
5_1	40	1	10:14:03	6	5	2146	11	11	19
5_1	40	1	10:14:03	1	5	224	1	18	20
5_1	40	1	10:14:03	0	4	307	5	2	21
5_1	40	1	10:14:03	6	0	3181	17	17	22
5_1	40	1	10:14:03	6	0	275	7	7	23
5_1	40	1	10:14:03	6	2	4634	4	4	24
5_1	40	1	10:14:03	6	2	323	13	13	25
5_1	40	1	10:14:03	6	0	176	9	9	26
5_1	40	1	10:14:03	0	0	1733	15	5	27
5_1	40	1	10:14:03	6	0	554	5	5	28
5_1	40	1	10:14:03	4	3	1793	14	5	29
5_1	40	1	10:14:03	3	0	489	8	10	30
5_1	40	1	10:14:03	6	4	2525	8	8	31
5_1	40	1	10:14:03	1	0	31	8	6	32
5_1	40	1	10:14:03	3	0	342	12	15	33
5_1	40	1	10:14:03	6	4	1279	15	15	34
5_1	40	1	10:14:03	4	0	3486	15	4	35
5_1	40	1	10:14:03	1	0	647	2	14	36
5_1	40	1	10:14:03	1	3	3044	3	14	37
5_1	40	1	10:14:03	1	0	247	4	11	38
5_1	40	1	10:14:03	4	4	550	4	12	39
5_1	40	1	10:14:03	6	0	8	16	16	40
5_1	40	1	10:14:03	2	0	2343	12	11	41
5_1	40	1	10:14:03	2	5	1320	5	18	42
5_1	40	1	10:14:03	3	5	807	1	13	43
5_1	40	1	10:14:03	0	0	261	18	8	44
5_1	40	1	10:14:03	1	0	13	6	12	45
5_1	40	1	10:14:03	6	3	101	3	3	46
5_1	40	1	10:14:03	6	2	1103	2	2	47
5_1	40	1	10:14:03	2	0	17	18	4	48
5_1	40	1	10:14:03	6	5	524	6	6	49
5_1	40	1	10:14:03	0	0	3233	1	3	50
5_1	40	1	10:14:03	2	0	805	13	2	51
5_1	40	1	10:14:03	6	6	2402	10	10	52
5_1	40	1	10:14:03	4	0	206	10	11	53
5_1	40	1	10:14:03	0	3	116	3	12	54
5_1	40	1	10:14:03	1	1	891	4	1	55
5_1	40	1	10:14:03	4	0	89	16	1	56
5_1	40	1	10:14:03	0	5	632	11	15	57
5_1	40	1	10:14:03	4	0	16	11	7	58
5_1	40	1	10:14:03	6	0	629	14	14	59
5_1	40	1	10:14:03	3	0	231	17	6	60
5_1	40	1	10:14:03	2	0	1024	15	17	61
5_1	40	1	10:14:03	2	4	1168	11	8	62
5_1	40	1	10:14:03	1	0	821	2	16	63
5_1	40	1	10:14:03	2	5	528	10	6	64
5_1	40	1	10:14:03	2	0	532	3	10	65
5_1	40	1	10:14:03	0	2	785	17	13	66
5_1	40	1	10:14:03	0	0	116	14	4	67
5_1	40	1	10:14:03	3	0	900	14	16	68
5_1	40	1	10:14:03	0	1	776	9	8	69
5_1	40	1	10:14:03	1	0	147	5	17	70
5_1	40	1	10:14:03	0	0	471	16	3	71
5_1	40	1	10:14:03	0	1	1005	12	2	72
5_1	8	1	14:03:09	2	3	3072	15	17	1
5_1	8	1	14:03:09	2	0	3940	18	14	2
5_1	8	1	14:03:09	6	5	3152	10	10	3
5_1	8	1	14:03:09	1	0	2443	5	17	4
5_1	8	1	14:03:09	4	0	726	16	1	5
5_1	8	1	14:03:09	0	0	148	12	2	6
5_1	8	1	14:03:09	2	5	583	5	18	7
5_1	8	1	14:03:09	1	0	1475	4	1	8
5_1	8	1	14:03:09	0	4	1229	13	7	9
5_1	8	1	14:03:09	0	4	1141	18	8	10
5_1	8	1	14:03:09	6	0	1896	1	1	11
5_1	8	1	14:03:09	6	6	196	17	17	12
5_1	8	1	14:03:09	6	0	1221	7	7	13
5_1	8	1	14:03:09	1	0	935	9	10	14
5_1	8	1	14:03:09	3	4	386	6	9	15
5_1	8	1	14:03:09	0	0	325	7	17	16
5_1	8	1	14:03:09	6	4	1203	5	5	17
5_1	8	1	14:03:09	2	5	946	13	2	18
5_1	8	1	14:03:09	1	3	722	3	14	19
5_1	8	1	14:03:09	1	0	496	2	14	20
5_1	8	1	14:03:09	3	0	197	17	6	21
5_1	8	1	14:03:09	4	5	885	4	12	22
5_1	8	1	14:03:09	2	0	243	17	9	23
5_1	8	1	14:03:09	6	5	320	18	18	24
5_1	8	1	14:03:09	2	3	1840	10	6	25
5_1	8	1	14:03:09	0	0	1636	14	4	26
5_1	8	1	14:03:09	4	0	612	15	4	27
5_1	8	1	14:03:09	1	4	959	7	1	28
5_1	8	1	14:03:09	3	0	902	7	5	29
5_1	8	1	14:03:09	1	5	431	8	16	30
5_1	8	1	14:03:09	4	3	625	14	5	31
5_1	8	1	14:03:09	0	0	529	5	2	32
5_1	8	1	14:03:09	6	0	2328	14	14	33
5_1	8	1	14:03:09	6	0	163	9	9	34
5_1	8	1	14:03:09	2	2	465	11	8	35
5_1	8	1	14:03:09	6	0	83	6	6	36
5_1	8	1	14:03:09	2	0	100	16	13	37
5_1	8	1	14:03:09	1	0	413	8	6	38
5_1	8	1	14:03:09	2	1	408	3	10	39
5_1	8	1	14:03:09	1	3	501	2	16	40
5_1	8	1	14:03:09	6	0	65	2	2	41
5_1	8	1	14:03:09	2	0	613	6	3	42
5_1	8	1	14:03:09	1	0	2015	4	11	43
5_1	8	1	14:03:09	0	0	336	17	13	44
5_1	8	1	14:03:09	3	0	566	12	15	45
5_1	8	1	14:03:09	3	2	706	1	13	46
5_1	8	1	14:03:09	1	4	70	1	18	47
5_1	8	1	14:03:09	6	4	637	16	16	48
5_1	8	1	14:03:09	3	0	1317	2	18	49
5_1	8	1	14:03:09	2	0	1686	18	4	50
5_1	8	1	14:03:09	6	0	1872	4	4	51
5_1	8	1	14:03:09	0	2	104	1	3	52