ExperimentName	Subject	Session	SessionTime	CorrectAns	TestList.Sample	testWait.RESP	testWait.RT
1_	14	1	14:13:40	f	1	j	3779
1_	14	1	14:13:40	j	2	j	412
1_	14	1	14:13:40	f	3	f	1108
1_	14	1	14:13:40	j	4	j	1722
1_	14	1	14:13:40	f	5	f	163
1_	14	1	14:13:40	j	6	j	859
1_	14	1	14:13:40	j	7	j	1952
1_	14	1	14:13:40	j	8	j	406
1_	14	1	14:13:40	f	9	f	1506
1_	14	1	14:13:40	f	10	f	4380
1_	14	1	14:13:40	j	11	j	28
1_	14	1	14:13:40	f	12	f	84
1_	14	1	14:13:40	f	13	f	5102
1_	14	1	14:13:40	j	14	j	592
1_	14	1	14:13:40	f	15	f	994
1_	14	1	14:13:40	f	16	f	4081
1_	14	1	14:13:40	f	17	f	663
1_	14	1	14:13:40	j	18	j	823
1_	14	1	14:13:40	j	19	j	253
1_	14	1	14:13:40	j	20	j	135
1_	14	1	14:13:40	j	21	j	3005
1_	14	1	14:13:40	f	22	f	850
1_	14	1	14:13:40	f	23	f	2752
1_	14	1	14:13:40	f	24	f	345
1_	14	1	14:13:40	f	25	f	64
1_	14	1	14:13:40	j	26	j	8
1_	14	1	14:13:40	j	27	j	2676
1_	14	1	14:13:40	j	28	j	1417
1_	14	1	14:13:40	j	29	j	4448
1_	14	1	14:13:40	j	30	j	759
1_	14	1	14:13:40	j	31	j	263
1_	14	1	14:13:40	j	32	j	1717
1_	14	1	14:13:40	f	33	f	4
1_	14	1	14:13:40	f	34	f	677
1_	14	1	14:13:40	f	35	j	1251
1_	14	1	14:13:40	f	36	f	4752
1_	4	1	15:41:36	j	1	j	553
1_	4	1	15:41:36	j	2	j	1989
1_	4	1	15:41:36	f	3	f	574
1_	4	1	15:41:36	j	4	j	357
1_	4	1	15:41:36	j	5	f	314
1_	4	1	15:41:36	j	6	j	355
1_	4	1	15:41:36	f	7	f	737
1_	4	1	15:41:36	f	8	f	1916
1_	4	1	15:41:36	j	9	j	364
1_	4	1	15:41:36	f	10	j	126
1_	4	1	15:41:36	f	11	f	4672
1_	4	1	15:41:36	j	12	j	602
1_	4	1	15:41:36	f	13	f	187
1_	4	1	15:41:36	f	14	f	19
1_	4	1	15:41:36	f	15	j	15748
1_	4	1	15:41:36	f	16	f	77
1_	4	1	15:41:36	f	17	f	3698
1_	4	1	15:41:36	j	18	f	1086
1_	4	1	15:41:36	j	19	j	74
1_	4	1	15:41:36	f	20	f	62
1_	4	1	15:41:36	j	21	f	25
1_	4	1	15:41:36	f	22	f	209
1_	4	1	15:41:36	j	23	f	313
1_	4	1	15:41:36	f	24	f	174
1_	4	1	15:41:36	f	25	f	271
1_	4	1	15:41:36	f	26	f	297
1_	4	1	15:41:36	j	27	f	669
1_	4	1	15:41:36	j	28	j	4597
1_	4	1	15:41:36	f	29	f	737
1_	4	1	15:41:36	j	30	j	348
1_	4	1	15:41:36	f	31	f	580
1_	4	1	15:41:36	j	32	f	414
1_	4	1	15:41:36	j	33	f	436
1_	4	1	15:41:36	f	34	f	274
1_	4	1	15:41:36	j	35	f	412
1_	4	1	15:41:36	j	36	f	351
1_	9	1	17:08:54	j	1	f	36677
1_	9	1	17:08:54	j	2	j	2865
1_	9	1	17:08:54	j	3	f	4258
1_	9	1	17:08:54	f	4	f	3029
1_	9	1	17:08:54	f	5	f	2444
1_	9	1	17:08:54	f	6	f	1893
1_	9	1	17:08:54	j	7	j	37
1_	9	1	17:08:54	j	8	j	1042
1_	9	1	17:08:54	j	9	f	163
1_	9	1	17:08:54	j	10	j	1838
1_	9	1	17:08:54	f	11	f	1439
1_	9	1	17:08:54	f	12	f	64
1_	9	1	17:08:54	f	13	f	560
1_	9	1	17:08:54	j	14	j	9
1_	9	1	17:08:54	f	15	f	1093
1_	9	1	17:08:54	j	16	j	266
1_	9	1	17:08:54	f	17	f	6
1_	9	1	17:08:54	f	18	f	2814
1_	9	1	17:08:54	f	19	f	1298
1_	9	1	17:08:54	j	20	j	160
1_	9	1	17:08:54	j	21	j	138
1_	9	1	17:08:54	f	22	f	114
1_	9	1	17:08:54	j	23	j	160
1_	9	1	17:08:54	f	24	f	38
1_	9	1	17:08:54	f	25	f	113
1_	9	1	17:08:54	j	26	f	575
1_	9	1	17:08:54	j	27	j	141
1_	9	1	17:08:54	j	28	j	620
1_	9	1	17:08:54	j	29	j	356
1_	9	1	17:08:54	f	30	f	130
1_	9	1	17:08:54	f	31	f	569
1_	9	1	17:08:54	f	32	f	66
1_	9	1	17:08:54	j	33	j	818
1_	9	1	17:08:54	f	34	f	47
1_	9	1	17:08:54	f	35	f	485
1_	9	1	17:08:54	j	36	j	63
1_	10	1	15:25:28	f	1	f	4939
1_	10	1	15:25:28	j	2	j	2728
1_	10	1	15:25:28	f	3	f	1591
1_	10	1	15:25:28	f	4	f	2015
1_	10	1	15:25:28	f	5	f	752
1_	10	1	15:25:28	f	6	f	313
1_	10	1	15:25:28	f	7	f	245
1_	10	1	15:25:28	f	8	f	406
1_	10	1	15:25:28	f	9	f	338
1_	10	1	15:25:28	f	10	f	518
1_	10	1	15:25:28	j	11	j	2
1_	10	1	15:25:28	j	12	j	76
1_	10	1	15:25:28	j	13	j	9
1_	10	1	15:25:28	f	14	f	7528
1_	10	1	15:25:28	j	15	j	559
1_	10	1	15:25:28	f	16	f	404
1_	10	1	15:25:28	j	17	j	1192
1_	10	1	15:25:28	j	18	j	503
1_	10	1	15:25:28	j	19	j	346
1_	10	1	15:25:28	f	20	f	192
1_	10	1	15:25:28	f	21	f	578
1_	10	1	15:25:28	f	22	f	351
1_	10	1	15:25:28	j	23	j	6366
1_	10	1	15:25:28	f	24	f	508
1_	10	1	15:25:28	j	25	j	4843
1_	10	1	15:25:28	j	26	j	3565
1_	10	1	15:25:28	j	27	j	481
1_	10	1	15:25:28	j	28	j	80
1_	10	1	15:25:28	j	29	j	3376
1_	10	1	15:25:28	j	30	j	815
1_	10	1	15:25:28	f	31	f	1423
1_	10	1	15:25:28	f	32	f	4606
1_	10	1	15:25:28	j	33	j	3486
1_	10	1	15:25:28	j	34	j	363
1_	10	1	15:25:28	f	35	f	104
1_	10	1	15:25:28	j	36	j	2538
1_	5	1	15:27:23	j	1	j	1490
1_	5	1	15:27:23	f	2	f	211
1_	5	1	15:27:23	j	3	j	1459
1_	5	1	15:27:23	j	4	j	1190
1_	5	1	15:27:23	j	5	j	613
1_	5	1	15:27:23	j	6	j	328
1_	5	1	15:27:23	j	7	j	929
1_	5	1	15:27:23	j	8	j	1632
1_	5	1	15:27:23	j	9	j	845
1_	5	1	15:27:23	f	10	f	104
1_	5	1	15:27:23	j	11	j	526
1_	5	1	15:27:23	j	12	j	174
1_	5	1	15:27:23	f	13	f	886
1_	5	1	15:27:23	j	14	j	186
1_	5	1	15:27:23	f	15	f	966
1_	5	1	15:27:23	f	16	f	942
1_	5	1	15:27:23	f	17	f	4207
1_	5	1	15:27:23	j	18	f	2391
1_	5	1	15:27:23	j	19	f	644
1_	5	1	15:27:23	j	20	j	5068
1_	5	1	15:27:23	j	21	j	653
1_	5	1	15:27:23	f	22	f	387
1_	5	1	15:27:23	j	23	j	216
1_	5	1	15:27:23	j	24	j	3392
1_	5	1	15:27:23	f	25	f	446
1_	5	1	15:27:23	f	26	f	44
1_	5	1	15:27:23	j	27	j	1867
1_	5	1	15:27:23	f	28	f	1092
1_	5	1	15:27:23	f	29	f	119
1_	5	1	15:27:23	f	30	f	320
1_	5	1	15:27:23	f	31	f	3004
1_	5	1	15:27:23	f	32	f	628
1_	5	1	15:27:23	f	33	f	640
1_	5	1	15:27:23	f	34	f	386
1_	5	1	15:27:23	f	35	f	3655
1_	5	1	15:27:23	f	36	f	1012
1_	13	1	15:32:23	f	1	f	6485
1_	13	1	15:32:23	f	2	f	3540
1_	13	1	15:32:23	j	3	j	705
1_	13	1	15:32:23	f	4	f	6248
1_	13	1	15:32:23	f	5	f	1580
1_	13	1	15:32:23	j	6	j	303
1_	13	1	15:32:23	f	7	f	6694
1_	13	1	15:32:23	f	8	f	390
1_	13	1	15:32:23	f	9	f	3104
1_	13	1	15:32:23	j	10	j	586
1_	13	1	15:32:23	j	11	j	3211
1_	13	1	15:32:23	j	12	j	329
1_	13	1	15:32:23	f	13	f	1166
1_	13	1	15:32:23	f	14	f	605
1_	13	1	15:32:23	j	15	j	91
1_	13	1	15:32:23	j	16	j	569
1_	13	1	15:32:23	f	17	f	1088
1_	13	1	15:32:23	j	18	j	269
1_	13	1	15:32:23	f	19	f	103
1_	13	1	15:32:23	j	20	j	137
1_	13	1	15:32:23	f	21	f	6
1_	13	1	15:32:23	f	22	f	1267
1_	13	1	15:32:23	j	23	j	1868
1_	13	1	15:32:23	j	24	j	2171
1_	13	1	15:32:23	f	25	f	660
1_	13	1	15:32:23	j	26	j	648
1_	13	1	15:32:23	j	27	j	2037
1_	13	1	15:32:23	f	28	f	878
1_	13	1	15:32:23	j	29	j	1466
1_	13	1	15:32:23	j	30	j	331
1_	13	1	15:32:23	f	31	f	240
1_	13	1	15:32:23	f	32	f	466
1_	13	1	15:32:23	j	33	j	428
1_	13	1	15:32:23	j	34	j	638
1_	13	1	15:32:23	j	35	f	647
1_	13	1	15:32:23	f	36	f	492
1_	17	1	14:57:02	j	1	j	3987
1_	17	1	14:57:02	j	2	f	1772
1_	17	1	14:57:02	f	3	f	2209
1_	17	1	14:57:02	j	4	j	961
1_	17	1	14:57:02	j	5	j	42
1_	17	1	14:57:02	j	6	j	2012
1_	17	1	14:57:02	j	7	j	2018
1_	17	1	14:57:02	j	8	j	760
1_	17	1	14:57:02	f	9	f	260
1_	17	1	14:57:02	f	10	f	4349
1_	17	1	14:57:02	f	11	f	628
1_	17	1	14:57:02	f	12	f	819
1_	17	1	14:57:02	f	13	f	1362
1_	17	1	14:57:02	j	14	j	280
1_	17	1	14:57:02	j	15	j	1099
1_	17	1	14:57:02	j	16	j	363
1_	17	1	14:57:02	f	17	f	406
1_	17	1	14:57:02	f	18	f	1380
1_	17	1	14:57:02	f	19	f	720
1_	17	1	14:57:02	j	20	j	423
1_	17	1	14:57:02	f	21	f	665
1_	17	1	14:57:02	f	22	f	513
1_	17	1	14:57:02	j	23	j	256
1_	17	1	14:57:02	j	24	j	330
1_	17	1	14:57:02	f	25	f	173
1_	17	1	14:57:02	f	26	f	7
1_	17	1	14:57:02	j	27	j	859
1_	17	1	14:57:02	f	28	f	93
1_	17	1	14:57:02	f	29	f	439
1_	17	1	14:57:02	j	30	j	7
1_	17	1	14:57:02	j	31	j	491
1_	17	1	14:57:02	f	32	f	230
1_	17	1	14:57:02	j	33	j	1404
1_	17	1	14:57:02	f	34	f	1232
1_	17	1	14:57:02	f	35	f	822
1_	17	1	14:57:02	j	36	j	1355
1_	20	1	15:32:50	j	1	j	1632
1_	20	1	15:32:50	f	2	f	2233
1_	20	1	15:32:50	j	3	j	1258
1_	20	1	15:32:50	j	4	j	1862
1_	20	1	15:32:50	j	5	j	1457
1_	20	1	15:32:50	f	6	f	5335
1_	20	1	15:32:50	f	7	f	3922
1_	20	1	15:32:50	j	8	j	1126
1_	20	1	15:32:50	j	9	f	781
1_	20	1	15:32:50	f	10	f	33
1_	20	1	15:32:50	j	11	j	208
1_	20	1	15:32:50	f	12	f	500
1_	20	1	15:32:50	f	13	f	147
1_	20	1	15:32:50	j	14	j	200
1_	20	1	15:32:50	f	15	f	27
1_	20	1	15:32:50	f	16	f	114
1_	20	1	15:32:50	f	17	f	1253
1_	20	1	15:32:50	f	18	f	18
1_	20	1	15:32:50	j	19	j	253
1_	20	1	15:32:50	f	20	f	882
1_	20	1	15:32:50	f	21	f	1085
1_	20	1	15:32:50	j	22	j	232
1_	20	1	15:32:50	j	23	j	446
1_	20	1	15:32:50	j	24	f	109
1_	20	1	15:32:50	j	25	f	2003
1_	20	1	15:32:50	j	26	j	3209
1_	20	1	15:32:50	j	27	j	251
1_	20	1	15:32:50	f	28	f	80
1_	20	1	15:32:50	j	29	j	6
1_	20	1	15:32:50	f	30	f	364
1_	20	1	15:32:50	j	31	j	848
1_	20	1	15:32:50	f	32	f	1231
1_	20	1	15:32:50	f	33	f	2643
1_	20	1	15:32:50	f	34	f	742
1_	20	1	15:32:50	f	35	f	3758
1_	20	1	15:32:50	j	36	j	570
1_	24	1	14:32:35	f	1	f	879
1_	24	1	14:32:35	f	2	f	2813
1_	24	1	14:32:35	f	3	f	1183
1_	24	1	14:32:35	j	4	j	2813
1_	24	1	14:32:35	f	5	f	1982
1_	24	1	14:32:35	f	6	f	354
1_	24	1	14:32:35	j	7	j	2394
1_	24	1	14:32:35	j	8	j	476
1_	24	1	14:32:35	j	9	j	1528
1_	24	1	14:32:35	j	10	j	1274
1_	24	1	14:32:35	f	11	j	16514
1_	24	1	14:32:35	f	12	f	290
1_	24	1	14:32:35	j	13	j	3363
1_	24	1	14:32:35	f	14	f	181
1_	24	1	14:32:35	j	15	j	4410
1_	24	1	14:32:35	j	16	j	609
1_	24	1	14:32:35	j	17	j	761
1_	24	1	14:32:35	j	18	j	538
1_	24	1	14:32:35	f	19	f	2021
1_	24	1	14:32:35	j	20	j	3295
1_	24	1	14:32:35	f	21	f	783
1_	24	1	14:32:35	j	22	j	328
1_	24	1	14:32:35	f	23	f	199
1_	24	1	14:32:35	f	24	f	3164
1_	24	1	14:32:35	j	25	j	1264
1_	24	1	14:32:35	f	26	f	690
1_	24	1	14:32:35	f	27	j	1252
1_	24	1	14:32:35	j	28	j	982
1_	24	1	14:32:35	j	29	j	747
1_	24	1	14:32:35	j	30	f	920
1_	24	1	14:32:35	f	31	f	111
1_	24	1	14:32:35	j	32	j	3626
1_	24	1	14:32:35	f	33	f	161
1_	24	1	14:32:35	j	34	j	601
1_	24	1	14:32:35	f	35	f	861
1_	24	1	14:32:35	f	36	f	687
1_	3	1	15:32:53	f	1	f	1499
1_	3	1	15:32:53	j	2	j	1369
1_	3	1	15:32:53	f	3	f	6931
1_	3	1	15:32:53	f	4	f	67
1_	3	1	15:32:53	j	5	j	520
1_	3	1	15:32:53	f	6	f	321
1_	3	1	15:32:53	f	7	f	2257
1_	3	1	15:32:53	f	8	f	247
1_	3	1	15:32:53	j	9	j	80
1_	3	1	15:32:53	j	10	j	1354
1_	3	1	15:32:53	j	11	j	1299
1_	3	1	15:32:53	j	12	j	406
1_	3	1	15:32:53	j	13	j	240
1_	3	1	15:32:53	j	14	j	1325
1_	3	1	15:32:53	j	15	j	2350
1_	3	1	15:32:53	f	16	f	71
1_	3	1	15:32:53	j	17	j	1797
1_	3	1	15:32:53	f	18	f	788
1_	3	1	15:32:53	f	19	f	365
1_	3	1	15:32:53	j	20	j	897
1_	3	1	15:32:53	j	21	j	602
1_	3	1	15:32:53	f	22	f	5
1_	3	1	15:32:53	f	23	f	668
1_	3	1	15:32:53	f	24	f	6
1_	3	1	15:32:53	f	25	f	770
1_	3	1	15:32:53	j	26	j	103
1_	3	1	15:32:53	f	27	f	726
1_	3	1	15:32:53	j	28	j	729
1_	3	1	15:32:53	f	29	f	654
1_	3	1	15:32:53	j	30	j	732
1_	3	1	15:32:53	j	31	j	2612
1_	3	1	15:32:53	j	32	j	741
1_	3	1	15:32:53	f	33	f	685
1_	3	1	15:32:53	f	34	f	401
1_	3	1	15:32:53	f	35	f	44
1_	3	1	15:32:53	j	36	j	735
1_	8	1	16:02:41	j	1	j	6923
1_	8	1	16:02:41	f	2	f	1538
1_	8	1	16:02:41	f	3	f	1750
1_	8	1	16:02:41	f	4	f	3638
1_	8	1	16:02:41	j	5	j	478
1_	8	1	16:02:41	f	6	f	1495
1_	8	1	16:02:41	j	7	j	540
1_	8	1	16:02:41	j	8	j	391
1_	8	1	16:02:41	j	9	j	3474
1_	8	1	16:02:41	f	10	f	2079
1_	8	1	16:02:41	f	11	f	1461
1_	8	1	16:02:41	f	12	f	319
1_	8	1	16:02:41	j	13	j	2768
1_	8	1	16:02:41	f	14	f	1104
1_	8	1	16:02:41	j	15	j	406
1_	8	1	16:02:41	j	16	j	451
1_	8	1	16:02:41	j	17	j	2930
1_	8	1	16:02:41	j	18	j	142
1_	8	1	16:02:41	j	19	f	1307
1_	8	1	16:02:41	j	20	j	320
1_	8	1	16:02:41	f	21	f	3469
1_	8	1	16:02:41	j	22	j	1142
1_	8	1	16:02:41	f	23	f	3024
1_	8	1	16:02:41	f	24	f	349
1_	8	1	16:02:41	j	25	j	678
1_	8	1	16:02:41	f	26	f	1204
1_	8	1	16:02:41	f	27	f	241
1_	8	1	16:02:41	f	28	f	2659
1_	8	1	16:02:41	j	29	j	172
1_	8	1	16:02:41	j	30	j	2837
1_	8	1	16:02:41	j	31	j	6671
1_	8	1	16:02:41	f	32	f	508
1_	8	1	16:02:41	f	33	f	401
1_	8	1	16:02:41	j	34	j	2012
1_	8	1	16:02:41	f	35	f	1807
1_	8	1	16:02:41	f	36	f	243
1_	1	1	15:56:01	f	1	f	713
1_	1	1	15:56:01	j	2	j	570
1_	1	1	15:56:01	j	3	j	14
1_	1	1	15:56:01	j	4	j	2320
1_	1	1	15:56:01	f	5	f	1199
1_	1	1	15:56:01	j	6	f	600
1_	1	1	15:56:01	j	7	j	870
1_	1	1	15:56:01	j	8	f	188
1_	1	1	15:56:01	j	9	f	1016
1_	1	1	15:56:01	j	10	j	16
1_	1	1	15:56:01	j	11	f	535
1_	1	1	15:56:01	f	12	f	676
1_	1	1	15:56:01	f	13	j	858
1_	1	1	15:56:01	j	14	j	653
1_	1	1	15:56:01	f	15	f	459
1_	1	1	15:56:01	j	16	j	29
1_	1	1	15:56:01	j	17	j	486
1_	1	1	15:56:01	f	18	f	595
1_	1	1	15:56:01	f	19	f	1185
1_	1	1	15:56:01	f	20	f	474
1_	1	1	15:56:01	j	21	j	332
1_	1	1	15:56:01	f	22	f	118
1_	1	1	15:56:01	f	23	f	176
1_	1	1	15:56:01	f	24	f	152
1_	1	1	15:56:01	f	25	f	50
1_	1	1	15:56:01	j	26	j	428
1_	1	1	15:56:01	f	27	f	650
1_	1	1	15:56:01	f	28	f	298
1_	1	1	15:56:01	j	29	j	23
1_	1	1	15:56:01	f	30	f	494
1_	1	1	15:56:01	j	31	j	192
1_	1	1	15:56:01	j	32	j	1
1_	1	1	15:56:01	f	33	f	301
1_	1	1	15:56:01	j	34	j	298
1_	1	1	15:56:01	f	35	f	218
1_	1	1	15:56:01	f	36	j	340
1_	11	1	15:55:36	f	1	f	452
1_	11	1	15:55:36	j	2	j	704
1_	11	1	15:55:36	f	3	f	2416
1_	11	1	15:55:36	j	4	j	2193
1_	11	1	15:55:36	j	5	j	475
1_	11	1	15:55:36	f	6	f	2021
1_	11	1	15:55:36	f	7	f	765
1_	11	1	15:55:36	j	8	j	336
1_	11	1	15:55:36	j	9	j	157
1_	11	1	15:55:36	j	10	j	5943
1_	11	1	15:55:36	j	11	j	4535
1_	11	1	15:55:36	j	12	j	515
1_	11	1	15:55:36	f	13	f	2528
1_	11	1	15:55:36	f	14	f	18
1_	11	1	15:55:36	j	15	j	2041
1_	11	1	15:55:36	j	16	f	3900
1_	11	1	15:55:36	j	17	j	755
1_	11	1	15:55:36	f	18	f	2148
1_	11	1	15:55:36	f	19	f	461
1_	11	1	15:55:36	j	20	f	903
1_	11	1	15:55:36	j	21	j	556
1_	11	1	15:55:36	f	22	f	700
1_	11	1	15:55:36	f	23	f	1421
1_	11	1	15:55:36	f	24	f	1947
1_	11	1	15:55:36	f	25	f	1377
1_	11	1	15:55:36	j	26	j	4665
1_	11	1	15:55:36	j	27	j	2842
1_	11	1	15:55:36	j	28	j	671
1_	11	1	15:55:36	f	29	f	1870
1_	11	1	15:55:36	f	30	f	2290
1_	11	1	15:55:36	f	31	f	2463
1_	11	1	15:55:36	j	32	j	2790
1_	11	1	15:55:36	f	33	f	2428
1_	11	1	15:55:36	j	34	f	1191
1_	11	1	15:55:36	f	35	f	704
1_	11	1	15:55:36	f	36	f	2018
1_	15	1	15:20:20	f	1	f	1473
1_	15	1	15:20:20	f	2	f	3184
1_	15	1	15:20:20	j	3	j	202
1_	15	1	15:20:20	f	4	f	2908
1_	15	1	15:20:20	f	5	f	1622
1_	15	1	15:20:20	f	6	f	1961
1_	15	1	15:20:20	f	7	f	2191
1_	15	1	15:20:20	j	8	j	7172
1_	15	1	15:20:20	f	9	f	1721
1_	15	1	15:20:20	j	10	j	396
1_	15	1	15:20:20	f	11	f	1145
1_	15	1	15:20:20	f	12	f	3010
1_	15	1	15:20:20	f	13	f	182
1_	15	1	15:20:20	j	14	j	5424
1_	15	1	15:20:20	f	15	f	716
1_	15	1	15:20:20	j	16	j	4987
1_	15	1	15:20:20	f	17	f	705
1_	15	1	15:20:20	j	18	j	338
1_	15	1	15:20:20	f	19	f	415
1_	15	1	15:20:20	j	20	j	1386
1_	15	1	15:20:20	j	21	j	458
1_	15	1	15:20:20	j	22	j	436
1_	15	1	15:20:20	j	23	j	116
1_	15	1	15:20:20	j	24	j	589
1_	15	1	15:20:20	f	25	f	300
1_	15	1	15:20:20	j	26	j	297
1_	15	1	15:20:20	j	27	j	582
1_	15	1	15:20:20	f	28	f	213
1_	15	1	15:20:20	j	29	j	4128
1_	15	1	15:20:20	f	30	f	1541
1_	15	1	15:20:20	f	31	f	788
1_	15	1	15:20:20	j	32	j	842
1_	15	1	15:20:20	j	33	j	1164
1_	15	1	15:20:20	j	34	j	3689
1_	15	1	15:20:20	f	35	f	725
1_	15	1	15:20:20	j	36	j	826
1_	18	1	15:56:10	f	1	f	952
1_	18	1	15:56:10	j	2	j	610
1_	18	1	15:56:10	f	3	f	640
1_	18	1	15:56:10	f	4	f	737
1_	18	1	15:56:10	f	5	j	851
1_	18	1	15:56:10	j	6	j	136
1_	18	1	15:56:10	j	7	j	5617
1_	18	1	15:56:10	j	8	j	783
1_	18	1	15:56:10	j	9	j	321
1_	18	1	15:56:10	f	10	f	5681
1_	18	1	15:56:10	f	11	f	496
1_	18	1	15:56:10	j	12	j	572
1_	18	1	15:56:10	f	13	f	2730
1_	18	1	15:56:10	j	14	j	475
1_	18	1	15:56:10	j	15	j	620
1_	18	1	15:56:10	f	16	f	4298
1_	18	1	15:56:10	j	17	j	84
1_	18	1	15:56:10	f	18	f	106
1_	18	1	15:56:10	j	19	j	102
1_	18	1	15:56:10	j	20	j	15
1_	18	1	15:56:10	f	21	f	1798
1_	18	1	15:56:10	f	22	f	3047
1_	18	1	15:56:10	f	23	j	5
1_	18	1	15:56:10	f	24	f	245
1_	18	1	15:56:10	j	25	j	288
1_	18	1	15:56:10	f	26	j	475
1_	18	1	15:56:10	j	27	j	104
1_	18	1	15:56:10	j	28	j	338
1_	18	1	15:56:10	f	29	f	1360
1_	18	1	15:56:10	f	30	f	2938
1_	18	1	15:56:10	f	31	f	2654
1_	18	1	15:56:10	f	32	f	446
1_	18	1	15:56:10	j	33	j	62
1_	18	1	15:56:10	j	34	j	287
1_	18	1	15:56:10	j	35	j	1536
1_	18	1	15:56:10	j	36	j	1457
1_	21	1	17:31:25	j	1	j	2647
1_	21	1	17:31:25	f	2	f	377
1_	21	1	17:31:25	j	3	j	469
1_	21	1	17:31:25	j	4	j	148
1_	21	1	17:31:25	f	5	f	2333
1_	21	1	17:31:25	f	6	f	521
1_	21	1	17:31:25	f	7	f	2868
1_	21	1	17:31:25	f	8	f	362
1_	21	1	17:31:25	j	9	j	1494
1_	21	1	17:31:25	j	10	j	5
1_	21	1	17:31:25	f	11	f	236
1_	21	1	17:31:25	f	12	f	515
1_	21	1	17:31:25	j	13	j	773
1_	21	1	17:31:25	f	14	f	262
1_	21	1	17:31:25	f	15	f	83
1_	21	1	17:31:25	j	16	j	1051
1_	21	1	17:31:25	j	17	j	1011
1_	21	1	17:31:25	f	18	f	568
1_	21	1	17:31:25	j	19	j	134
1_	21	1	17:31:25	f	20	f	223
1_	21	1	17:31:25	f	21	j	155
1_	21	1	17:31:25	f	22	f	161
1_	21	1	17:31:25	f	23	f	287
1_	21	1	17:31:25	f	24	f	757
1_	21	1	17:31:25	j	25	j	2
1_	21	1	17:31:25	j	26	j	225
1_	21	1	17:31:25	f	27	f	1084
1_	21	1	17:31:25	j	28	j	481
1_	21	1	17:31:25	f	29	f	527
1_	21	1	17:31:25	j	30	f	1281
1_	21	1	17:31:25	j	31	j	56
1_	21	1	17:31:25	j	32	j	1392
1_	21	1	17:31:25	j	33	j	398
1_	21	1	17:31:25	j	34	j	183
1_	21	1	17:31:25	j	35	j	2146
1_	21	1	17:31:25	f	36	f	569
1_	22	1	14:28:28	f	1	f	72962
1_	22	1	14:28:28	f	2	j	1270
1_	22	1	14:28:28	j	3	f	3365
1_	22	1	14:28:28	j	4	j	4863
1_	22	1	14:28:28	j	5	j	1233
1_	22	1	14:28:28	j	6	j	1946
1_	22	1	14:28:28	f	7	f	3150
1_	22	1	14:28:28	f	8	f	136
1_	22	1	14:28:28	f	9	f	1283
1_	22	1	14:28:28	j	10	f	12617
1_	22	1	14:28:28	f	11	j	546
1_	22	1	14:28:28	j	12	j	1168
1_	22	1	14:28:28	f	13	j	3962
1_	22	1	14:28:28	f	14	j	12251
1_	22	1	14:28:28	j	15	j	449
1_	22	1	14:28:28	j	16	j	765
1_	22	1	14:28:28	j	17	j	7553
1_	22	1	14:28:28	j	18	j	2653
1_	22	1	14:28:28	j	19	j	22990
1_	22	1	14:28:28	j	20	j	440
1_	22	1	14:28:28	j	21	j	177
1_	22	1	14:28:28	j	22	j	61
1_	22	1	14:28:28	j	23	j	1427
1_	22	1	14:28:28	f	24	j	1408
1_	22	1	14:28:28	j	25	f	1231
1_	22	1	14:28:28	f	26	j	10153
1_	22	1	14:28:28	f	27	f	27
1_	22	1	14:28:28	f	28	f	179
1_	22	1	14:28:28	f	29	f	620
1_	22	1	14:28:28	j	30	j	9584
1_	22	1	14:28:28	f	31	f	24
1_	22	1	14:28:28	j	32	j	112
1_	22	1	14:28:28	f	33	j	950
1_	22	1	14:28:28	f	34	j	140
1_	22	1	14:28:28	f	35	f	149
1_	22	1	14:28:28	f	36	f	64
1_	25	1	15:08:04	f	1	f	1514
1_	25	1	15:08:04	f	2	f	423
1_	25	1	15:08:04	j	3	j	3717
1_	25	1	15:08:04	f	4	f	4965
1_	25	1	15:08:04	j	5	j	552
1_	25	1	15:08:04	f	6	f	437
1_	25	1	15:08:04	j	7	j	1508
1_	25	1	15:08:04	f	8	f	34
1_	25	1	15:08:04	f	9	f	363
1_	25	1	15:08:04	f	10	f	3801
1_	25	1	15:08:04	f	11	f	358
1_	25	1	15:08:04	j	12	j	148
1_	25	1	15:08:04	j	13	j	29
1_	25	1	15:08:04	j	14	j	629
1_	25	1	15:08:04	j	15	j	196
1_	25	1	15:08:04	j	16	j	926
1_	25	1	15:08:04	f	17	f	81
1_	25	1	15:08:04	j	18	j	3003
1_	25	1	15:08:04	j	19	j	306
1_	25	1	15:08:04	f	20	f	124
1_	25	1	15:08:04	f	21	f	40
1_	25	1	15:08:04	j	22	f	188
1_	25	1	15:08:04	f	23	f	118
1_	25	1	15:08:04	j	24	j	1743
1_	25	1	15:08:04	j	25	j	176
1_	25	1	15:08:04	j	26	j	1192
1_	25	1	15:08:04	j	27	j	388
1_	25	1	15:08:04	j	28	f	64
1_	25	1	15:08:04	f	29	f	166
1_	25	1	15:08:04	f	30	f	1218
1_	25	1	15:08:04	f	31	f	967
1_	25	1	15:08:04	f	32	f	402
1_	25	1	15:08:04	j	33	j	1598
1_	25	1	15:08:04	f	34	f	700
1_	25	1	15:08:04	j	35	j	2140
1_	25	1	15:08:04	f	36	f	3108
1_	27	1	15:51:59	j	1	j	1636
1_	27	1	15:51:59	f	2	f	738
1_	27	1	15:51:59	j	3	j	1096
1_	27	1	15:51:59	j	4	j	832
1_	27	1	15:51:59	j	5	j	403
1_	27	1	15:51:59	f	6	f	9185
1_	27	1	15:51:59	j	7	j	35
1_	27	1	15:51:59	j	8	j	75
1_	27	1	15:51:59	f	9	f	51
1_	27	1	15:51:59	j	10	j	4619
1_	27	1	15:51:59	f	11	f	314
1_	27	1	15:51:59	f	12	f	38
1_	27	1	15:51:59	f	13	f	2351
1_	27	1	15:51:59	f	14	f	40
1_	27	1	15:51:59	j	15	j	2384
1_	27	1	15:51:59	f	16	f	2618
1_	27	1	15:51:59	f	17	f	700
1_	27	1	15:51:59	j	18	j	125
1_	27	1	15:51:59	j	19	j	247
1_	27	1	15:51:59	f	20	j	3523
1_	27	1	15:51:59	f	21	f	1754
1_	27	1	15:51:59	f	22	f	449
1_	27	1	15:51:59	f	23	f	267
1_	27	1	15:51:59	f	24	f	246
1_	27	1	15:51:59	f	25	f	65
1_	27	1	15:51:59	j	26	j	218
1_	27	1	15:51:59	f	27	f	2917
1_	27	1	15:51:59	j	28	j	4567
1_	27	1	15:51:59	j	29	j	9
1_	27	1	15:51:59	j	30	j	5916
1_	27	1	15:51:59	j	31	j	671
1_	27	1	15:51:59	f	32	f	2254
1_	27	1	15:51:59	j	33	j	4139
1_	27	1	15:51:59	j	34	j	351
1_	27	1	15:51:59	j	35	j	7
1_	27	1	15:51:59	f	36	f	4485
1_	6	1	16:27:15	j	1	j	1153
1_	6	1	16:27:15	f	2	f	1164
1_	6	1	16:27:15	f	3	f	241
1_	6	1	16:27:15	j	4	j	3602
1_	6	1	16:27:15	f	5	f	2396
1_	6	1	16:27:15	j	6	j	283
1_	6	1	16:27:15	f	7	f	1748
1_	6	1	16:27:15	j	8	j	1191
1_	6	1	16:27:15	f	9	f	514
1_	6	1	16:27:15	j	10	j	703
1_	6	1	16:27:15	j	11	j	93
1_	6	1	16:27:15	f	12	f	421
1_	6	1	16:27:15	f	13	f	55
1_	6	1	16:27:15	f	14	f	782
1_	6	1	16:27:15	f	15	f	688
1_	6	1	16:27:15	f	16	f	656
1_	6	1	16:27:15	j	17	j	612
1_	6	1	16:27:15	j	18	f	356
1_	6	1	16:27:15	j	19	j	1711
1_	6	1	16:27:15	j	20	j	48
1_	6	1	16:27:15	j	21	j	456
1_	6	1	16:27:15	f	22	f	261
1_	6	1	16:27:15	j	23	j	80
1_	6	1	16:27:15	f	24	f	780
1_	6	1	16:27:15	j	25	j	489
1_	6	1	16:27:15	j	26	j	364
1_	6	1	16:27:15	f	27	f	53
1_	6	1	16:27:15	j	28	j	993
1_	6	1	16:27:15	f	29	f	1096
1_	6	1	16:27:15	f	30	f	832
1_	6	1	16:27:15	f	31	j	945
1_	6	1	16:27:15	j	32	j	825
1_	6	1	16:27:15	f	33	f	588
1_	6	1	16:27:15	f	34	f	473
1_	6	1	16:27:15	j	35	j	969
1_	6	1	16:27:15	j	36	j	559
1_	12	1	15:41:53	f	1	f	1385
1_	12	1	15:41:53	j	2	j	1780
1_	12	1	15:41:53	j	3	j	524
1_	12	1	15:41:53	j	4	j	228
1_	12	1	15:41:53	j	5	j	70
1_	12	1	15:41:53	j	6	j	1064
1_	12	1	15:41:53	j	7	j	2390
1_	12	1	15:41:53	j	8	j	1689
1_	12	1	15:41:53	j	9	j	6607
1_	12	1	15:41:53	f	10	f	437
1_	12	1	15:41:53	j	11	j	5635
1_	12	1	15:41:53	f	12	j	119
1_	12	1	15:41:53	f	13	f	350
1_	12	1	15:41:53	f	14	f	1701
1_	12	1	15:41:53	f	15	f	2917
1_	12	1	15:41:53	f	16	j	1049
1_	12	1	15:41:53	j	17	j	1558
1_	12	1	15:41:53	f	18	f	883
1_	12	1	15:41:53	f	19	f	813
1_	12	1	15:41:53	f	20	f	383
1_	12	1	15:41:53	f	21	f	1123
1_	12	1	15:41:53	j	22	j	1450
1_	12	1	15:41:53	f	23	j	177
1_	12	1	15:41:53	j	24	j	341
1_	12	1	15:41:53	j	25	j	470
1_	12	1	15:41:53	j	26	j	691
1_	12	1	15:41:53	j	27	j	2463
1_	12	1	15:41:53	f	28	f	754
1_	12	1	15:41:53	j	29	j	210
1_	12	1	15:41:53	f	30	f	55
1_	12	1	15:41:53	f	31	f	2805
1_	12	1	15:41:53	j	32	j	944
1_	12	1	15:41:53	f	33	j	2208
1_	12	1	15:41:53	j	34	f	2678
1_	12	1	15:41:53	f	35	f	1220
1_	12	1	15:41:53	f	36	f	1605
1_	16	1	15:06:39	j	1	j	2733
1_	16	1	15:06:39	j	2	j	1999
1_	16	1	15:06:39	j	3	j	531
1_	16	1	15:06:39	j	4	f	1507
1_	16	1	15:06:39	j	5	j	880
1_	16	1	15:06:39	f	6	f	166
1_	16	1	15:06:39	f	7	f	541
1_	16	1	15:06:39	f	8	f	62
1_	16	1	15:06:39	f	9	f	1695
1_	16	1	15:06:39	j	10	j	3847
1_	16	1	15:06:39	f	11	f	189
1_	16	1	15:06:39	f	12	f	783
1_	16	1	15:06:39	j	13	j	206
1_	16	1	15:06:39	f	14	f	405
1_	16	1	15:06:39	f	15	f	178
1_	16	1	15:06:39	f	16	j	1262
1_	16	1	15:06:39	j	17	j	732
1_	16	1	15:06:39	f	18	f	1120
1_	16	1	15:06:39	f	19	f	172
1_	16	1	15:06:39	j	20	j	80
1_	16	1	15:06:39	j	21	j	955
1_	16	1	15:06:39	f	22	f	62
1_	16	1	15:06:39	f	23	f	241
1_	16	1	15:06:39	j	24	j	1219
1_	16	1	15:06:39	f	25	f	180
1_	16	1	15:06:39	j	26	j	85
1_	16	1	15:06:39	j	27	j	535
1_	16	1	15:06:39	j	28	j	1016
1_	16	1	15:06:39	j	29	j	26
1_	16	1	15:06:39	j	30	j	551
1_	16	1	15:06:39	f	31	f	968
1_	16	1	15:06:39	j	32	f	864
1_	16	1	15:06:39	f	33	f	97
1_	16	1	15:06:39	j	34	j	84
1_	16	1	15:06:39	f	35	f	1456
1_	16	1	15:06:39	f	36	f	2150
1_	19	1	16:49:35	f	1	f	549
1_	19	1	16:49:35	f	2	f	228
1_	19	1	16:49:35	f	3	f	242
1_	19	1	16:49:35	j	4	j	2459
1_	19	1	16:49:35	j	5	j	934
1_	19	1	16:49:35	f	6	f	2929
1_	19	1	16:49:35	f	7	f	5
1_	19	1	16:49:35	j	8	j	909
1_	19	1	16:49:35	j	9	f	4655
1_	19	1	16:49:35	j	10	j	593
1_	19	1	16:49:35	f	11	f	1
1_	19	1	16:49:35	f	12	f	270
1_	19	1	16:49:35	f	13	f	490
1_	19	1	16:49:35	j	14	j	620
1_	19	1	16:49:35	f	15	f	885
1_	19	1	16:49:35	f	16	f	17
1_	19	1	16:49:35	j	17	j	141
1_	19	1	16:49:35	j	18	j	191
1_	19	1	16:49:35	f	19	f	605
1_	19	1	16:49:35	f	20	f	52
1_	19	1	16:49:35	f	21	f	289
1_	19	1	16:49:35	j	22	j	513
1_	19	1	16:49:35	j	23	j	253
1_	19	1	16:49:35	j	24	j	215
1_	19	1	16:49:35	j	25	j	213
1_	19	1	16:49:35	j	26	j	214
1_	19	1	16:49:35	f	27	f	112
1_	19	1	16:49:35	j	28	j	91
1_	19	1	16:49:35	j	29	j	24
1_	19	1	16:49:35	j	30	j	462
1_	19	1	16:49:35	j	31	j	36
1_	19	1	16:49:35	f	32	f	238
1_	19	1	16:49:35	j	33	j	372
1_	19	1	16:49:35	f	34	f	309
1_	19	1	16:49:35	f	35	f	223
1_	19	1	16:49:35	f	36	f	127
1_	2	1	15:42:24	f	1	f	1522
1_	2	1	15:42:24	j	2	j	4578
1_	2	1	15:42:24	f	3	f	1088
1_	2	1	15:42:24	j	4	j	922
1_	2	1	15:42:24	f	5	f	658
1_	2	1	15:42:24	f	6	f	504
1_	2	1	15:42:24	f	7	f	2296
1_	2	1	15:42:24	j	8	j	355
1_	2	1	15:42:24	f	9	f	432
1_	2	1	15:42:24	j	10	j	837
1_	2	1	15:42:24	j	11	j	307
1_	2	1	15:42:24	f	12	f	47
1_	2	1	15:42:24	f	13	f	507
1_	2	1	15:42:24	j	14	j	638
1_	2	1	15:42:24	f	15	f	225
1_	2	1	15:42:24	j	16	j	146
1_	2	1	15:42:24	j	17	j	314
1_	2	1	15:42:24	j	18	j	2942
1_	2	1	15:42:24	f	19	f	3964
1_	2	1	15:42:24	f	20	f	189
1_	2	1	15:42:24	j	21	j	547
1_	2	1	15:42:24	f	22	f	115
1_	2	1	15:42:24	j	23	j	372
1_	2	1	15:42:24	j	24	j	322
1_	2	1	15:42:24	j	25	j	274
1_	2	1	15:42:24	j	26	j	3289
1_	2	1	15:42:24	f	27	f	323
1_	2	1	15:42:24	f	28	f	1107
1_	2	1	15:42:24	j	29	j	196
1_	2	1	15:42:24	f	30	f	199
1_	2	1	15:42:24	j	31	j	252
1_	2	1	15:42:24	j	32	j	278
1_	2	1	15:42:24	f	33	f	52
1_	2	1	15:42:24	f	34	f	50
1_	2	1	15:42:24	f	35	f	33
1_	2	1	15:42:24	j	36	j	1899
1_	23	1	14:37:11	j	1	j	1425
1_	23	1	14:37:11	j	2	f	292
1_	23	1	14:37:11	j	3	j	866
1_	23	1	14:37:11	f	4	f	389
1_	23	1	14:37:11	j	5	j	1332
1_	23	1	14:37:11	j	6	j	370
1_	23	1	14:37:11	j	7	j	65
1_	23	1	14:37:11	j	8	f	344
1_	23	1	14:37:11	f	9	f	2431
1_	23	1	14:37:11	j	10	j	2893
1_	23	1	14:37:11	j	11	j	256
1_	23	1	14:37:11	f	12	f	726
1_	23	1	14:37:11	f	13	f	388
1_	23	1	14:37:11	j	14	j	1463
1_	23	1	14:37:11	f	15	f	642
1_	23	1	14:37:11	f	16	f	1295
1_	23	1	14:37:11	j	17	j	1193
1_	23	1	14:37:11	j	18	j	892
1_	23	1	14:37:11	f	19	f	549
1_	23	1	14:37:11	f	20	f	646
1_	23	1	14:37:11	f	21	f	711
1_	23	1	14:37:11	f	22	f	130
1_	23	1	14:37:11	j	23	j	475
1_	23	1	14:37:11	f	24	f	897
1_	23	1	14:37:11	j	25	j	360
1_	23	1	14:37:11	f	26	f	933
1_	23	1	14:37:11	j	27	j	928
1_	23	1	14:37:11	f	28	j	4520
1_	23	1	14:37:11	j	29	j	391
1_	23	1	14:37:11	f	30	f	767
1_	23	1	14:37:11	f	31	f	191
1_	23	1	14:37:11	j	32	j	1177
1_	23	1	14:37:11	f	33	f	141
1_	23	1	14:37:11	j	34	j	62
1_	23	1	14:37:11	f	35	f	752
1_	23	1	14:37:11	f	36	f	710
1_	26	1	15:03:49	f	1	f	794
1_	26	1	15:03:49	j	2	j	5556
1_	26	1	15:03:49	f	3	f	110
1_	26	1	15:03:49	j	4	j	3630
1_	26	1	15:03:49	f	5	f	5749
1_	26	1	15:03:49	f	6	f	1495
1_	26	1	15:03:49	f	7	f	3118
1_	26	1	15:03:49	j	8	j	141
1_	26	1	15:03:49	f	9	f	1446
1_	26	1	15:03:49	f	10	j	2445
1_	26	1	15:03:49	j	11	j	2136
1_	26	1	15:03:49	j	12	j	1648
1_	26	1	15:03:49	f	13	f	3441
1_	26	1	15:03:49	f	14	f	611
1_	26	1	15:03:49	j	15	j	7
1_	26	1	15:03:49	f	16	f	1909
1_	26	1	15:03:49	f	17	f	688
1_	26	1	15:03:49	f	18	f	978
1_	26	1	15:03:49	f	19	f	7
1_	26	1	15:03:49	f	20	f	204
1_	26	1	15:03:49	f	21	f	2001
1_	26	1	15:03:49	j	22	j	3246
1_	26	1	15:03:49	j	23	j	535
1_	26	1	15:03:49	j	24	j	2403
1_	26	1	15:03:49	j	25	j	3791
1_	26	1	15:03:49	j	26	j	1372
1_	26	1	15:03:49	j	27	j	967
1_	26	1	15:03:49	j	28	j	63
1_	26	1	15:03:49	j	29	j	787
1_	26	1	15:03:49	j	30	j	727
1_	26	1	15:03:49	j	31	f	134
1_	26	1	15:03:49	j	32	j	3330
1_	26	1	15:03:49	f	33	f	59
1_	26	1	15:03:49	j	34	f	272
1_	26	1	15:03:49	f	35	f	925
1_	26	1	15:03:49	f	36	f	1221
1_	7	1	16:13:35	j	1	j	362
1_	7	1	16:13:35	f	2	f	1141
1_	7	1	16:13:35	j	3	j	333
1_	7	1	16:13:35	j	4	f	337
1_	7	1	16:13:35	j	5	j	52
1_	7	1	16:13:35	j	6	j	3474
1_	7	1	16:13:35	f	7	f	321
1_	7	1	16:13:35	j	8	j	224
1_	7	1	16:13:35	j	9	j	428
1_	7	1	16:13:35	j	10	j	1219
1_	7	1	16:13:35	f	11	f	4499
1_	7	1	16:13:35	j	12	j	3314
1_	7	1	16:13:35	j	13	f	133
1_	7	1	16:13:35	f	14	f	5232
1_	7	1	16:13:35	f	15	f	3174
1_	7	1	16:13:35	j	16	j	310
1_	7	1	16:13:35	f	17	f	4913
1_	7	1	16:13:35	j	18	j	36
1_	7	1	16:13:35	j	19	j	75
1_	7	1	16:13:35	f	20	f	1
1_	7	1	16:13:35	f	21	f	4176
1_	7	1	16:13:35	f	22	f	4367
1_	7	1	16:13:35	f	23	f	126
1_	7	1	16:13:35	j	24	j	725
1_	7	1	16:13:35	f	25	f	1
1_	7	1	16:13:35	f	26	f	3218
1_	7	1	16:13:35	f	27	f	2161
1_	7	1	16:13:35	j	28	j	135
1_	7	1	16:13:35	f	29	f	113
1_	7	1	16:13:35	f	30	f	2228
1_	7	1	16:13:35	f	31	f	5089
1_	7	1	16:13:35	f	32	f	563
1_	7	1	16:13:35	j	33	j	263
1_	7	1	16:13:35	j	34	f	68
1_	7	1	16:13:35	f	35	f	3572
1_	7	1	16:13:35	j	36	j	437
